workerid,proliferate.condition,accuracy,correct,failed_audio,failed_images,failed_video,internal_node_id,response,result,rt,stimulus,success,time_elapsed,timeout,trial_index,trial_type,error
101,English_Mandarin_some,,,[],[],[],0.0-0.0,,,,,True,51931,False,0,preload,
101,English_Mandarin_some,,,,,,0.0-1.0,0,,153950,"
    <p style=""width: 1000px; margin-bottom: 250px"">
    斯坦福大学语言学系邀请您参加一项研究。
    <BR><BR>您会完成一项跟语言有关的任务，例如读或听一些字、描述图片或场景、造句、或完成简单的语言游戏。
    <BR>本研究中没有已知的风险、成本或不适。
    <BR><BR>
    如果您同意参与这项研究，请继续。
    </p>
    <p style=""width: 1000px; font-size: 9pt; position: relative; text-align: justify"">
    如果您已读完此表格并决定参与此项目，请明白您的参与是自愿的，您有权随时撤回您的同意或停止参与，而不会受到惩罚或失去您原本可以享有的利益有权。 您有权拒绝回答任何问题。 您的个人隐私将在研究产生的所有已发布和书面数据中得到保护。
    <BR><BR>联系信息：问题、疑虑或投诉：如果您对本研究、其程序、风险和益处有任何问题、疑虑或投诉，请致电 (650) 723-4284 联系 Meghan Sumner 教授。如果您对这项研究的进行方式不满意，或者如果您对研究或您作为参与者的权利有任何疑虑、投诉或一般问题，请联系斯坦福机构审查委员会 (IRB) 发言与独立于研究团队的人联系 (650)-723-2480 或拨打免费电话 1-866-680-2906。 您也可以致函 Stanford IRB, Stanford University, Stanford, CA 94305-5401 或发送电子邮件至 irbnonmed@stanford.edu。
    </p>",,205882,,1,html-button-response,
101,English_Mandarin_some,,,,,,0.0-2.0, ,,14397,<p>这个实验将会播放音频。<BR><BR><strong><p2>您必须年满十八周岁才能参与此项实验，并且您需要会说中文、英文两种语言。</p2></strong> <br><br>请您在安静的地方用电脑完成这个实验，并确保您把<strong><p2>电脑音量调整至合适的程度</p2></strong>。 <br><br>请按空格键继续。</p>,,220280,,2,html-keyboard-response,
101,English_Mandarin_some,,,,,,0.0-3.0, ,,8836,在接下来的实验中，你将听到一些句子。你的任务是根据你是否同意这些句子来回答“是”或“否”。这个实验大约需要20分钟。<br><br>当你准备好开始时，请按下空格键。,,229117,,3,html-keyboard-response,
101,English_Mandarin_some,,,,,,0.0-4.0, ,,24187,"<h3><strong><big><p2>Context</p2></big></strong></h3> <br> <img src='image/0.jpg'; alt='gumball_machine'; align='right'; style='height:200px'> <p2 align='left'><big> You are at a candy store and are testing a row of gumball machines. These are special gumball machines that say how many gumballs you got. However, this report is sometimes faulty. </big></p2> <br><br> <img src='image/store_worker_1.jpg' alt='store_worker_sitting' align='left' style='height:200px'> <br><br> <p2 align='right'> <big> The store worker tells you that his boss has threatened to fire him if the gumball machines are left empty, and he really needs this job. He cannot see the machines from the register, but he can normally tell how full they are by the machines' statements.</big> </p2> <br><br><br> <img src='image/store_worker_2.jpg' alt='store_worker_standing' align='center' style='height:200px'> <p2 align='left'> <big> He asks you to tell him if the statement is right or wrong, so that he will know if a machine is empty and needs to be refilled. </big> </p2> <br><br>",,253305,,4,html-keyboard-response,
101,English_Mandarin_some,,,,,,0.0-5.0, ,,13135,"<p><font size=""5""> Place your right index finger on the <strong>J</strong> key and left index finger on the <strong>F</strong> key. <br><br><img src=""image/keypress.jpg""alt=""keyboard"" align=""center"" style=""height:400px""> <br><br> If you agree with the statement, press <strong>F</strong>; if you disagree with the statement, press <strong>J</strong>. <br>Use your thumb to press <strong>SPACE</strong> and do not move your index fingers. <br> <strong><p2>Please remember, you have four seconds to inform the worker after you hear the statement. </p2></strong> <br><br></p></font> ",,266441,,5,html-keyboard-response,
101,English_Mandarin_some,,,,,,0.0-6.0-0.0,,,,audio/kaching.wav,,267156,,6,audio-keyboard-response,
101,English_Mandarin_some,,,,,,0.0-6.0-1.0,,,,audio/all.wav,,268885,,7,audio-keyboard-response,
101,English_Mandarin_some,,,,,,0.0-6.0-2.0,f,,769,<img src='image/13.jpg'; style='height:400px'>,,269655,,8,html-keyboard-response,
101,English_Mandarin_some,,,,,,0.0-6.0-3.0, ,,6107,<h3><big><p2> You let the store worker know that you agree with the statement. He therefore knows that the machine is empty and that he needs to refill the machine. </p2></big></h3><img src='image/store_worker_gumball.jpg'; style='height:400px'>,,275763,,9,html-keyboard-response,
101,English_Mandarin_some,,,,,,0.0-7.0-0.0,,,,audio/kaching.wav,,276445,,10,audio-keyboard-response,
101,English_Mandarin_some,,,,,,0.0-7.0-1.0,,,,audio/none.wav,,278695,,11,audio-keyboard-response,
101,English_Mandarin_some,,,,,,0.0-7.0-2.0,j,,1962,<img src='image/10.jpg'; style='height:400px'>,,280658,,12,html-keyboard-response,
101,English_Mandarin_some,,,,,,0.0-7.0-3.0, ,,9139,<h3><big><p2> You let the store worker know that you disagreed with the statement. He therefore knows that the machine is not empty and that he does not need to refill the machine. </p2></big></h3><img src='image/store_worker_gumball.jpg'; style='height:400px'>,,289798,,13,html-keyboard-response,
101,English_Mandarin_some,,,,,,0.0-8.0-0.0, ,,16859,"<h3><big><p2>Be Careful!</h3></big> <img src='image/13.jpg'; align='left'; style='height:200px'><h3><p2>One time, someone got this many gumballs and was told ""You got all of the gumballs."" <br>They pressed ""NO"" (J) telling the store worker that they disagreed with the statement. He thought the machine was not empty and that he did not need to refill it. He was fired.</br></p2></h3> <img src='image/store_worker_fired.jpg'; align='right'; style='height:200px'><br><br><br><br><br><br><br>",,306657,,14,html-keyboard-response,
101,English_Mandarin_some,,True,,,,0.0-8.0-1.0,a,,17488,"<h3><big>Quiz</big></h3><br>When will the store worker be fired? <br> Please press the corresponding button on the keyboard.（For instance, if you choose a, then press ""a"" on your keyboard）<br><br>a. When the machines are empty.<br> b. When the machines jam.<br> c. When the machines explode.<br> d. When the machines don't make a sound.",,325148,,15,categorize-html,
101,English_Mandarin_some,,,,,,0.0-9.0-0.0, ,,4574,"<h3>Let's start with four practice trials.</h3> Please make sure that your index fingers are on the J and F keys. <br><p2>Please remember, you have four seconds to inform the worker after you hear the statement.</p2></br></h3> <br><br><br><br><br><br>",,329723,,16,html-keyboard-response,
101,English_Mandarin_some,,,,,,0.0-9.0-1.0,,,,audio/kaching.wav,,330421,,17,audio-keyboard-response,
101,English_Mandarin_some,,,,,,0.0-9.0-2.0,f,false_alarm,1341,audio/all.wav,,331764,,18,audio-keyboard-response,
101,English_Mandarin_some,,,,,,0.0-9.0-3.0, ,,781,,,332546,,19,html-keyboard-response,
101,English_Mandarin_some,,,,,,0.0-9.0-4.0,,,,audio/kaching.wav,,333231,,20,audio-keyboard-response,
101,English_Mandarin_some,,,,,,0.0-9.0-5.0,j,false_alarm,1789,audio/none.wav,,335026,,21,audio-keyboard-response,
101,English_Mandarin_some,,,,,,0.0-9.0-6.0, ,,525,,,335552,,22,html-keyboard-response,
101,English_Mandarin_some,,,,,,0.0-9.0-7.0,,,,audio/kaching.wav,,336241,,23,audio-keyboard-response,
101,English_Mandarin_some,,,,,,0.0-9.0-8.0,j,false_alarm,1880,audio/all.wav,,338124,,24,audio-keyboard-response,
101,English_Mandarin_some,,,,,,0.0-9.0-9.0, ,,734,,,338859,,25,html-keyboard-response,
101,English_Mandarin_some,,,,,,0.0-9.0-10.0,,,,audio/kaching.wav,,339541,,26,audio-keyboard-response,
101,English_Mandarin_some,,,,,,0.0-9.0-11.0,f,false_alarm,2280,audio/none.wav,,341823,,27,audio-keyboard-response,
101,English_Mandarin_some,,,,,,0.0-9.0-12.0, ,,597,,,342420,,28,html-keyboard-response,
101,English_Mandarin_some,,,,,,0.0-9.0-13.0, ,,2827,"<h3>Great! Now we can start the real experiment.</h3> Please make sure that your index fingers are on the J and F keys. <br><p2>Remember: J means ""agree"" and F means ""disagree""!</p2></br></h3> <br><br><br><br><br><br>",,345247,,29,html-keyboard-response,
101,English_Mandarin_some,,,,,,0.0-10.0-0.0,,,,audio/kaching.wav,,345931,,30,audio-keyboard-response,
101,English_Mandarin_some,,j,,,,0.0-10.0-1.0,f,miss,2541,audio/some-critical.wav,,348818,,31,audio-keyboard-response,
101,English_Mandarin_some,,,,,,0.0-10.0-2.0, ,,862,,,349681,,32,html-keyboard-response,
101,English_Mandarin_some,,,,,,0.0-10.0-0.1,,,,audio/kaching.wav,,350371,,33,audio-keyboard-response,
101,English_Mandarin_some,,j,,,,0.0-10.0-1.1,f,miss,1288,audio/some-critical.wav,,351666,,34,audio-keyboard-response,
101,English_Mandarin_some,,,,,,0.0-10.0-2.1, ,,733,,,352399,,35,html-keyboard-response,
101,English_Mandarin_some,,,,,,0.0-10.0-0.2,,,,audio/kaching.wav,,353081,,36,audio-keyboard-response,
101,English_Mandarin_some,,j,,,,0.0-10.0-1.2,j,correct_rejection,1539,audio/all.wav,,354627,,37,audio-keyboard-response,
101,English_Mandarin_some,,,,,,0.0-10.0-2.2, ,,306,,,354933,,38,html-keyboard-response,
101,English_Mandarin_some,,,,,,0.0-10.0-0.3,,,,audio/kaching.wav,,355621,,39,audio-keyboard-response,
101,English_Mandarin_some,,j,,,,0.0-10.0-1.3,f,miss,1360,audio/some-critical.wav,,356989,,40,audio-keyboard-response,
101,English_Mandarin_some,,,,,,0.0-10.0-2.3, ,,458,,,357448,,41,html-keyboard-response,
101,English_Mandarin_some,,,,,,0.0-10.0-0.4,,,,audio/kaching.wav,,358131,,42,audio-keyboard-response,
101,English_Mandarin_some,,j,,,,0.0-10.0-1.4,f,miss,1189,audio/some-critical.wav,,359322,,43,audio-keyboard-response,
101,English_Mandarin_some,,,,,,0.0-10.0-2.4, ,,417,,,359740,,44,html-keyboard-response,
101,English_Mandarin_some,,,,,,0.0-10.0-0.5,,,,audio/kaching.wav,,360431,,45,audio-keyboard-response,
101,English_Mandarin_some,,j,,,,0.0-10.0-1.5,f,miss,1221,audio/some-critical.wav,,361659,,46,audio-keyboard-response,
101,English_Mandarin_some,,,,,,0.0-10.0-2.5, ,,520,,,362179,,47,html-keyboard-response,
101,English_Mandarin_some,,,,,,0.0-10.0-0.6,,,,audio/kaching.wav,,362861,,48,audio-keyboard-response,
101,English_Mandarin_some,,f,,,,0.0-10.0-1.6,f,hit,1112,audio/some.wav,,364220,,49,audio-keyboard-response,
101,English_Mandarin_some,,,,,,0.0-10.0-2.6, ,,368,,,364588,,50,html-keyboard-response,
101,English_Mandarin_some,,,,,,0.0-10.0-0.7,,,,audio/kaching.wav,,365271,,51,audio-keyboard-response,
101,English_Mandarin_some,,f,,,,0.0-10.0-1.7,f,hit,1621,audio/two.wav,,367339,,52,audio-keyboard-response,
101,English_Mandarin_some,,,,,,0.0-10.0-2.7, ,,381,,,367721,,53,html-keyboard-response,
101,English_Mandarin_some,,,,,,0.0-10.0-0.8,,,,audio/kaching.wav,,368411,,54,audio-keyboard-response,
101,English_Mandarin_some,,j,,,,0.0-10.0-1.8,j,correct_rejection,1611,audio/six.wav,,370436,,55,audio-keyboard-response,
101,English_Mandarin_some,,,,,,0.0-10.0-2.8, ,,240,,,370677,,56,html-keyboard-response,
101,English_Mandarin_some,,,,,,0.0-10.0-0.9,,,,audio/kaching.wav,,371361,,57,audio-keyboard-response,
101,English_Mandarin_some,,j,,,,0.0-10.0-1.9,,false_alarm,,audio/ten.wav,,375646,,58,audio-keyboard-response,
101,English_Mandarin_some,,,,,,0.0-10.0-2.9, ,,942,,,376589,,59,html-keyboard-response,
101,English_Mandarin_some,,,,,,0.0-10.0-0.10,,,,audio/kaching.wav,,377271,,60,audio-keyboard-response,
101,English_Mandarin_some,,j,,,,0.0-10.0-1.10,f,miss,1741,audio/some-critical.wav,,379019,,61,audio-keyboard-response,
101,English_Mandarin_some,,,,,,0.0-10.0-2.10, ,,683,,,379702,,62,html-keyboard-response,
101,English_Mandarin_some,,,,,,0.0-10.0-0.11,,,,audio/kaching.wav,,380391,,63,audio-keyboard-response,
101,English_Mandarin_some,,j,,,,0.0-10.0-1.11,j,correct_rejection,1440,audio/all.wav,,381835,,64,audio-keyboard-response,
101,English_Mandarin_some,,,,,,0.0-10.0-2.11, ,,331,,,382167,,65,html-keyboard-response,
101,English_Mandarin_some,,,,,,0.0-10.0-0.12,,,,audio/kaching.wav,,382851,,66,audio-keyboard-response,
101,English_Mandarin_some,,f,,,,0.0-10.0-1.12,f,hit,1469,audio/two.wav,,384331,,67,audio-keyboard-response,
101,English_Mandarin_some,,,,,,0.0-10.0-2.12, ,,439,,,384770,,68,html-keyboard-response,
101,English_Mandarin_some,,,,,,0.0-10.0-0.13,,,,audio/kaching.wav,,385451,,69,audio-keyboard-response,
101,English_Mandarin_some,,f,,,,0.0-10.0-1.13,f,hit,1309,audio/all.wav,,386770,,70,audio-keyboard-response,
101,English_Mandarin_some,,,,,,0.0-10.0-2.13, ,,409,,,387179,,71,html-keyboard-response,
101,English_Mandarin_some,,,,,,0.0-10.0-0.14,,,,audio/kaching.wav,,387861,,72,audio-keyboard-response,
101,English_Mandarin_some,,f,,,,0.0-10.0-1.14,f,hit,1912,audio/none.wav,,389772,,73,audio-keyboard-response,
101,English_Mandarin_some,,,,,,0.0-10.0-2.14, ,,444,,,390216,,74,html-keyboard-response,
101,English_Mandarin_some,,,,,,0.0-10.0-0.15,,,,audio/kaching.wav,,390901,,75,audio-keyboard-response,
101,English_Mandarin_some,,j,,,,0.0-10.0-1.15,j,correct_rejection,1640,audio/some.wav,,392548,,76,audio-keyboard-response,
101,English_Mandarin_some,,,,,,0.0-10.0-2.15, ,,392,,,392940,,77,html-keyboard-response,
101,English_Mandarin_some,,,,,,0.0-10.0-0.16,,,,audio/kaching.wav,,393631,,78,audio-keyboard-response,
101,English_Mandarin_some,,f,,,,0.0-10.0-1.16,f,hit,2720,audio/ten.wav,,396354,,79,audio-keyboard-response,
101,English_Mandarin_some,,,,,,0.0-10.0-2.16, ,,938,,,397293,,80,html-keyboard-response,
101,English_Mandarin_some,,,,,,0.0-10.0-0.17,,,,audio/kaching.wav,,397981,,81,audio-keyboard-response,
101,English_Mandarin_some,,j,,,,0.0-10.0-1.17,j,correct_rejection,1421,audio/some.wav,,399406,,82,audio-keyboard-response,
101,English_Mandarin_some,,,,,,0.0-10.0-2.17, ,,485,,,399892,,83,html-keyboard-response,
101,English_Mandarin_some,,,,,,0.0-10.0-0.18,,,,audio/kaching.wav,,400581,,84,audio-keyboard-response,
101,English_Mandarin_some,,j,,,,0.0-10.0-1.18,j,correct_rejection,1341,audio/two.wav,,401928,,85,audio-keyboard-response,
101,English_Mandarin_some,,,,,,0.0-10.0-2.18, ,,554,,,402483,,86,html-keyboard-response,
101,English_Mandarin_some,,,,,,0.0-10.0-0.19,,,,audio/kaching.wav,,403171,,87,audio-keyboard-response,
101,English_Mandarin_some,,f,,,,0.0-10.0-1.19,f,hit,2909,audio/ten.wav,,406081,,88,audio-keyboard-response,
101,English_Mandarin_some,,,,,,0.0-10.0-2.19, ,,708,,,406790,,89,html-keyboard-response,
101,English_Mandarin_some,,,,,,0.0-10.0-0.20,,,,audio/kaching.wav,,407470,,90,audio-keyboard-response,
101,English_Mandarin_some,,f,,,,0.0-10.0-1.20,f,hit,3589,audio/six.wav,,411066,,91,audio-keyboard-response,
101,English_Mandarin_some,,,,,,0.0-10.0-2.20, ,,480,,,411546,,92,html-keyboard-response,
101,English_Mandarin_some,,,,,,0.0-10.0-0.21,,,,audio/kaching.wav,,412231,,93,audio-keyboard-response,
101,English_Mandarin_some,,j,,,,0.0-10.0-1.21,j,correct_rejection,1261,audio/none.wav,,413500,,94,audio-keyboard-response,
101,English_Mandarin_some,,,,,,0.0-10.0-2.21, ,,392,,,413893,,95,html-keyboard-response,
101,English_Mandarin_some,,,,,,0.0-10.0-0.22,,,,audio/kaching.wav,,414581,,96,audio-keyboard-response,
101,English_Mandarin_some,,j,,,,0.0-10.0-1.22,j,correct_rejection,1211,audio/none.wav,,415796,,97,audio-keyboard-response,
101,English_Mandarin_some,,,,,,0.0-10.0-2.22, ,,342,,,416138,,98,html-keyboard-response,
101,English_Mandarin_some,,,,,,0.0-10.0-0.23,,,,audio/kaching.wav,,416821,,99,audio-keyboard-response,
101,English_Mandarin_some,,j,,,,0.0-10.0-1.23,j,correct_rejection,2101,audio/six.wav,,418930,,100,audio-keyboard-response,
101,English_Mandarin_some,,,,,,0.0-10.0-2.23, ,,1147,,,420078,,101,html-keyboard-response,
101,English_Mandarin_some,,,,,,0.0-10.0-0.24,,,,audio/kaching.wav,,420761,,102,audio-keyboard-response,
101,English_Mandarin_some,,f,,,,0.0-10.0-1.24,f,hit,1819,audio/some.wav,,422590,,103,audio-keyboard-response,
101,English_Mandarin_some,,,,,,0.0-10.0-2.24, ,,504,,,423095,,104,html-keyboard-response,
101,English_Mandarin_some,,,,,,0.0-10.0-0.25,,,,audio/kaching.wav,,423781,,105,audio-keyboard-response,
101,English_Mandarin_some,,j,,,,0.0-10.0-1.25,j,correct_rejection,2621,audio/ten.wav,,426405,,106,audio-keyboard-response,
101,English_Mandarin_some,,,,,,0.0-10.0-2.25, ,,485,,,426890,,107,html-keyboard-response,
101,English_Mandarin_some,,,,,,0.0-10.0-0.26,,,,audio/kaching.wav,,427581,,108,audio-keyboard-response,
101,English_Mandarin_some,,j,,,,0.0-10.0-1.26,f,miss,1501,audio/some-critical.wav,,429090,,109,audio-keyboard-response,
101,English_Mandarin_some,,,,,,0.0-10.0-2.26, ,,551,,,429642,,110,html-keyboard-response,
101,English_Mandarin_some,,,,,,0.0-10.0-0.27,,,,audio/kaching.wav,,430331,,111,audio-keyboard-response,
101,English_Mandarin_some,,f,,,,0.0-10.0-1.27,f,hit,2360,audio/six.wav,,432694,,112,audio-keyboard-response,
101,English_Mandarin_some,,,,,,0.0-10.0-2.27, ,,469,,,433163,,113,html-keyboard-response,
101,English_Mandarin_some,,,,,,0.0-10.0-0.28,,,,audio/kaching.wav,,433851,,114,audio-keyboard-response,
101,English_Mandarin_some,,f,,,,0.0-10.0-1.28,j,false_alarm,1688,audio/none.wav,,435545,,115,audio-keyboard-response,
101,English_Mandarin_some,,,,,,0.0-10.0-2.28, ,,820,,,436366,,116,html-keyboard-response,
101,English_Mandarin_some,,,,,,0.0-10.0-0.29,,,,audio/kaching.wav,,437052,,117,audio-keyboard-response,
101,English_Mandarin_some,,j,,,,0.0-10.0-1.29,j,correct_rejection,1600,audio/two.wav,,438652,,118,audio-keyboard-response,
101,English_Mandarin_some,,,,,,0.0-10.0-2.29, ,,475,,,439127,,119,html-keyboard-response,
101,English_Mandarin_some,,,,,,0.0-10.0-0.30,,,,audio/kaching.wav,,439812,,120,audio-keyboard-response,
101,English_Mandarin_some,,f,,,,0.0-10.0-1.30,f,hit,1149,audio/all.wav,,440964,,121,audio-keyboard-response,
101,English_Mandarin_some,,,,,,0.0-10.0-2.30, ,,495,,,441460,,122,html-keyboard-response,
101,English_Mandarin_some,,,,,,0.0-10.0-0.31,,,,audio/kaching.wav,,442141,,123,audio-keyboard-response,
101,English_Mandarin_some,,j,,,,0.0-10.0-1.31,f,miss,1320,audio/some-critical.wav,,443470,,124,audio-keyboard-response,
101,English_Mandarin_some,,,,,,0.0-10.0-2.31, ,,438,,,443909,,125,html-keyboard-response,
101,English_Mandarin_some,,True,,,,0.0-11.0-0.0,b,,10990,"接下来你将会用中文来完成剩下的试验。 <br><br><h3><big>测验</big></h3><br>店员何时会被解雇? <br>请按下选项相应的字母键（如选择a, 则按a键）<br><br>a. 当机器爆炸时。 <br> b. 当机器空了的时候。 <br> c. 当机器没有声音时。 <br> d. 当机器卡住时。",,455914,,126,categorize-html,
101,English_Mandarin_some,,,,,,0.0-12.0-0.0,,,,audio/kaching.wav,,456602,,127,audio-keyboard-response,
101,English_Mandarin_some,,j,,,,0.0-12.0-1.0,,false_alarm,,audio/yixie-critical.wav,,460830,,128,audio-keyboard-response,
101,English_Mandarin_some,,,,,,0.0-12.0-2.0, ,,711,,,461542,,129,html-keyboard-response,
101,English_Mandarin_some,,,,,,0.0-12.0-0.1,,,,audio/kaching.wav,,462232,,130,audio-keyboard-response,
101,English_Mandarin_some,,f,,,,0.0-12.0-1.1,f,hit,1851,audio/yixie.wav,,464083,,131,audio-keyboard-response,
101,English_Mandarin_some,,,,,,0.0-12.0-2.1, ,,619,,,464703,,132,html-keyboard-response,
101,English_Mandarin_some,,,,,,0.0-12.0-0.2,,,,audio/kaching.wav,,465391,,133,audio-keyboard-response,
101,English_Mandarin_some,,j,,,,0.0-12.0-1.2,j,correct_rejection,1280,audio/yixie.wav,,466673,,134,audio-keyboard-response,
101,English_Mandarin_some,,,,,,0.0-12.0-2.2, ,,345,,,467018,,135,html-keyboard-response,
101,English_Mandarin_some,,,,,,0.0-12.0-0.3,,,,audio/kaching.wav,,467701,,136,audio-keyboard-response,
101,English_Mandarin_some,,f,,,,0.0-12.0-1.3,f,hit,2240,audio/meiyou.wav,,469942,,137,audio-keyboard-response,
101,English_Mandarin_some,,,,,,0.0-12.0-2.3, ,,583,,,470525,,138,html-keyboard-response,
101,English_Mandarin_some,,,,,,0.0-12.0-0.4,,,,audio/kaching.wav,,471211,,139,audio-keyboard-response,
101,English_Mandarin_some,,j,,,,0.0-12.0-1.4,j,correct_rejection,1608,audio/2.wav,,472825,,140,audio-keyboard-response,
101,English_Mandarin_some,,,,,,0.0-12.0-2.4, ,,469,,,473295,,141,html-keyboard-response,
101,English_Mandarin_some,,,,,,0.0-12.0-0.5,,,,audio/kaching.wav,,473982,,142,audio-keyboard-response,
101,English_Mandarin_some,,f,,,,0.0-12.0-1.5,f,hit,3541,audio/10.wav,,477526,,143,audio-keyboard-response,
101,English_Mandarin_some,,,,,,0.0-12.0-2.5, ,,576,,,478102,,144,html-keyboard-response,
101,English_Mandarin_some,,,,,,0.0-12.0-0.6,,,,audio/kaching.wav,,478792,,145,audio-keyboard-response,
101,English_Mandarin_some,,f,,,,0.0-12.0-1.6,f,hit,2469,audio/10.wav,,481269,,146,audio-keyboard-response,
101,English_Mandarin_some,,,,,,0.0-12.0-2.6, ,,628,,,481898,,147,html-keyboard-response,
101,English_Mandarin_some,,,,,,0.0-12.0-0.7,,,,audio/kaching.wav,,482581,,148,audio-keyboard-response,
101,English_Mandarin_some,,j,,,,0.0-12.0-1.7,f,miss,1800,audio/yixie-critical.wav,,484383,,149,audio-keyboard-response,
101,English_Mandarin_some,,,,,,0.0-12.0-2.7, ,,637,,,485021,,150,html-keyboard-response,
101,English_Mandarin_some,,,,,,0.0-12.0-0.8,,,,audio/kaching.wav,,485712,,151,audio-keyboard-response,
101,English_Mandarin_some,,j,,,,0.0-12.0-1.8,j,correct_rejection,1621,audio/meiyou.wav,,487338,,152,audio-keyboard-response,
101,English_Mandarin_some,,,,,,0.0-12.0-2.8, ,,1399,,,488737,,153,html-keyboard-response,
101,English_Mandarin_some,,,,,,0.0-12.0-0.9,,,,audio/kaching.wav,,489421,,154,audio-keyboard-response,
101,English_Mandarin_some,,j,,,,0.0-12.0-1.9,f,miss,1541,audio/yixie-critical.wav,,490966,,155,audio-keyboard-response,
101,English_Mandarin_some,,,,,,0.0-12.0-2.9, ,,406,,,491373,,156,html-keyboard-response,
101,English_Mandarin_some,,,,,,0.0-12.0-0.10,,,,audio/kaching.wav,,492061,,157,audio-keyboard-response,
101,English_Mandarin_some,,j,,,,0.0-12.0-1.10,f,miss,1440,audio/yixie-critical.wav,,493507,,158,audio-keyboard-response,
101,English_Mandarin_some,,,,,,0.0-12.0-2.10, ,,591,,,494100,,159,html-keyboard-response,
101,English_Mandarin_some,,,,,,0.0-12.0-0.11,,,,audio/kaching.wav,,494781,,160,audio-keyboard-response,
101,English_Mandarin_some,,f,,,,0.0-12.0-1.11,f,hit,1280,audio/suoyou.wav,,496063,,161,audio-keyboard-response,
101,English_Mandarin_some,,,,,,0.0-12.0-2.11, ,,500,,,496564,,162,html-keyboard-response,
101,English_Mandarin_some,,,,,,0.0-12.0-0.12,,,,audio/kaching.wav,,497251,,163,audio-keyboard-response,
101,English_Mandarin_some,,f,,,,0.0-12.0-1.12,f,hit,1688,audio/2.wav,,498946,,164,audio-keyboard-response,
101,English_Mandarin_some,,,,,,0.0-12.0-2.12, ,,469,,,499415,,165,html-keyboard-response,
101,English_Mandarin_some,,,,,,0.0-12.0-0.13,,,,audio/kaching.wav,,500101,,166,audio-keyboard-response,
101,English_Mandarin_some,,f,,,,0.0-12.0-1.13,j,false_alarm,1392,audio/meiyou.wav,,501493,,167,audio-keyboard-response,
101,English_Mandarin_some,,,,,,0.0-12.0-2.13, ,,654,,,502147,,168,html-keyboard-response,
101,English_Mandarin_some,,,,,,0.0-12.0-0.14,,,,audio/kaching.wav,,502831,,169,audio-keyboard-response,
101,English_Mandarin_some,,j,,,,0.0-12.0-1.14,f,miss,1120,audio/yixie-critical.wav,,503958,,170,audio-keyboard-response,
101,English_Mandarin_some,,,,,,0.0-12.0-2.14, ,,464,,,504423,,171,html-keyboard-response,
101,English_Mandarin_some,,,,,,0.0-12.0-0.15,,,,audio/kaching.wav,,505111,,172,audio-keyboard-response,
101,English_Mandarin_some,,f,,,,0.0-12.0-1.15,f,hit,1291,audio/suoyou.wav,,506402,,173,audio-keyboard-response,
101,English_Mandarin_some,,,,,,0.0-12.0-2.15, ,,362,,,506764,,174,html-keyboard-response,
101,English_Mandarin_some,,,,,,0.0-12.0-0.16,,,,audio/kaching.wav,,507451,,175,audio-keyboard-response,
101,English_Mandarin_some,,j,,,,0.0-12.0-1.16,f,miss,1000,audio/yixie-critical.wav,,508454,,176,audio-keyboard-response,
101,English_Mandarin_some,,,,,,0.0-12.0-2.16, ,,419,,,508874,,177,html-keyboard-response,
101,English_Mandarin_some,,,,,,0.0-12.0-0.17,,,,audio/kaching.wav,,509561,,178,audio-keyboard-response,
101,English_Mandarin_some,,f,,,,0.0-12.0-1.17,f,hit,1509,audio/2.wav,,511077,,179,audio-keyboard-response,
101,English_Mandarin_some,,,,,,0.0-12.0-2.17, ,,331,,,511408,,180,html-keyboard-response,
101,English_Mandarin_some,,,,,,0.0-12.0-0.18,,,,audio/kaching.wav,,512091,,181,audio-keyboard-response,
101,English_Mandarin_some,,j,,,,0.0-12.0-1.18,j,correct_rejection,1920,audio/10.wav,,514015,,182,audio-keyboard-response,
101,English_Mandarin_some,,,,,,0.0-12.0-2.18, ,,373,,,514389,,183,html-keyboard-response,
101,English_Mandarin_some,,,,,,0.0-12.0-0.19,,,,audio/kaching.wav,,515071,,184,audio-keyboard-response,
101,English_Mandarin_some,,j,,,,0.0-12.0-1.19,j,correct_rejection,1541,audio/suoyou.wav,,516619,,185,audio-keyboard-response,
101,English_Mandarin_some,,,,,,0.0-12.0-2.19, ,,494,,,517113,,186,html-keyboard-response,
101,English_Mandarin_some,,,,,,0.0-12.0-0.20,,,,audio/kaching.wav,,517801,,187,audio-keyboard-response,
101,English_Mandarin_some,,j,,,,0.0-12.0-1.20,j,correct_rejection,1469,audio/meiyou.wav,,519277,,188,audio-keyboard-response,
101,English_Mandarin_some,,,,,,0.0-12.0-2.20, ,,539,,,519817,,189,html-keyboard-response,
101,English_Mandarin_some,,,,,,0.0-12.0-0.21,,,,audio/kaching.wav,,520501,,190,audio-keyboard-response,
101,English_Mandarin_some,,f,,,,0.0-12.0-1.21,f,hit,1811,audio/6.wav,,522320,,191,audio-keyboard-response,
101,English_Mandarin_some,,,,,,0.0-12.0-2.21, ,,503,,,522823,,192,html-keyboard-response,
101,English_Mandarin_some,,,,,,0.0-12.0-0.22,,,,audio/kaching.wav,,523511,,193,audio-keyboard-response,
101,English_Mandarin_some,,j,,,,0.0-12.0-1.22,j,correct_rejection,2061,audio/6.wav,,525575,,194,audio-keyboard-response,
101,English_Mandarin_some,,,,,,0.0-12.0-2.22, ,,355,,,525931,,195,html-keyboard-response,
101,English_Mandarin_some,,,,,,0.0-12.0-0.23,,,,audio/kaching.wav,,526621,,196,audio-keyboard-response,
101,English_Mandarin_some,,j,,,,0.0-12.0-1.23,f,miss,3440,audio/10.wav,,530069,,197,audio-keyboard-response,
101,English_Mandarin_some,,,,,,0.0-12.0-2.23, ,,1362,,,531432,,198,html-keyboard-response,
101,English_Mandarin_some,,,,,,0.0-12.0-0.24,,,,audio/kaching.wav,,532120,,199,audio-keyboard-response,
101,English_Mandarin_some,,j,,,,0.0-12.0-1.24,j,correct_rejection,1371,audio/suoyou.wav,,533494,,200,audio-keyboard-response,
101,English_Mandarin_some,,,,,,0.0-12.0-2.24, ,,382,,,533876,,201,html-keyboard-response,
101,English_Mandarin_some,,,,,,0.0-12.0-0.25,,,,audio/kaching.wav,,534561,,202,audio-keyboard-response,
101,English_Mandarin_some,,j,,,,0.0-12.0-1.25,j,correct_rejection,1720,audio/6.wav,,536290,,203,audio-keyboard-response,
101,English_Mandarin_some,,,,,,0.0-12.0-2.25, ,,351,,,536642,,204,html-keyboard-response,
101,English_Mandarin_some,,,,,,0.0-12.0-0.26,,,,audio/kaching.wav,,537331,,205,audio-keyboard-response,
101,English_Mandarin_some,,j,,,,0.0-12.0-1.26,f,miss,1509,audio/yixie-critical.wav,,538842,,206,audio-keyboard-response,
101,English_Mandarin_some,,,,,,0.0-12.0-2.26, ,,382,,,539225,,207,html-keyboard-response,
101,English_Mandarin_some,,,,,,0.0-12.0-0.27,,,,audio/kaching.wav,,539911,,208,audio-keyboard-response,
101,English_Mandarin_some,,j,,,,0.0-12.0-1.27,f,miss,1581,audio/yixie-critical.wav,,541495,,209,audio-keyboard-response,
101,English_Mandarin_some,,,,,,0.0-12.0-2.27, ,,1062,,,542557,,210,html-keyboard-response,
101,English_Mandarin_some,,,,,,0.0-12.0-0.28,,,,audio/kaching.wav,,543240,,211,audio-keyboard-response,
101,English_Mandarin_some,,f,,,,0.0-12.0-1.28,f,hit,1611,audio/6.wav,,544855,,212,audio-keyboard-response,
101,English_Mandarin_some,,,,,,0.0-12.0-2.28, ,,472,,,545328,,213,html-keyboard-response,
101,English_Mandarin_some,,,,,,0.0-12.0-0.29,,,,audio/kaching.wav,,546011,,214,audio-keyboard-response,
101,English_Mandarin_some,,j,,,,0.0-12.0-1.29,j,correct_rejection,1419,audio/2.wav,,547437,,215,audio-keyboard-response,
101,English_Mandarin_some,,,,,,0.0-12.0-2.29, ,,396,,,547834,,216,html-keyboard-response,
101,English_Mandarin_some,,,,,,0.0-12.0-0.30,,,,audio/kaching.wav,,548521,,217,audio-keyboard-response,
101,English_Mandarin_some,,j,,,,0.0-12.0-1.30,j,correct_rejection,1531,audio/yixie.wav,,550060,,218,audio-keyboard-response,
101,English_Mandarin_some,,,,,,0.0-12.0-2.30, ,,438,,,550499,,219,html-keyboard-response,
101,English_Mandarin_some,,,,,,0.0-12.0-0.31,,,,audio/kaching.wav,,551181,,220,audio-keyboard-response,
101,English_Mandarin_some,,f,,,,0.0-12.0-1.31,f,hit,1592,audio/yixie.wav,,552780,,221,audio-keyboard-response,
101,English_Mandarin_some,,,,,,0.0-12.0-2.31, ,,427,,,553208,,222,html-keyboard-response,
101,English_Mandarin_some,[],,,,,0.0-13.0,"{'age': '23', 'P0_Q0': None, 'gender': 'Female', 'education': ' College (B.A., B.S.)', 'disability': [], 'place of residence': 'British Columbia, Canada', 'disability explanation': ''}",,62511,,,615757,,223,survey,
101,English_Mandarin_some,[],,,,,0.0-14.0,"{'P0_Q0': None, 'eng ok age': 6, 'eng edu year': 17, 'eng start age': 3, 'Mandarin ok age': 'As early as I can remember', 'eng country year': 19, 'English work year': 5, 'Mandarin edu year': 0, 'Mandarin start age': 'since birth', 'Mandarin work year': 1, 'English family year': 0, 'Mandarin family year': '20+', 'Mandarin country year': 4}",,115760,,,731539,,224,survey,
101,English_Mandarin_some,[],,,,,0.0-15.0,"{'P0_Q0': None, 'eng count time': '10%', 'eng family time': '20%', 'eng friend time': '90%', 'Eng self talk time': '50%', 'English school time': '90%', 'Mandarin count time': '90%', 'Mandarin family time': '80%', 'Mandarin friend time': '10%', 'Mandarin school time': '10%', 'Mandarin self talk time': '50%', 'other language count time': '0%', 'other langauge family time': '0%', 'other language friend time': '0%', 'other languages school time': '0%', 'other language self talk time': '0%'}",,68501,,,800055,,225,survey,
101,English_Mandarin_some,[],,,,,0.0-16.0,"{'P0_Q0': None, 'eng prof read': 6, 'eng prof speak': 6, 'eng prof write': 6, 'Mandarin prof read': 5, 'Mandarin prof speak': 5, 'Mandarin prof write': 4, 'eng prof understand': 6, 'Mandarin prof understand': 6}",,17204,,,817269,,226,survey,
101,English_Mandarin_some,[],,,,,0.0-17.0,"{'P0_Q0': None, 'eng native': 6, 'Eng other eval': 6, 'Mandarin native': 6, 'eng cultural id': 5, 'eng attitude speak': 5, 'Mandarin other eval': 6, 'Mandarin cultural id': 4, 'Mandarin attitude speak': 5}",,22372,,,839647,,227,survey,
101,English_Mandarin_some,[],,,,,0.0-18.0,"{'P0_Q1': None, 'comments': ''}",,5808,,,845464,,228,survey,
109,English_Mandarin_some,,,[],[],[],0.0-0.0,,,,,True,469,False,0,preload,
109,English_Mandarin_some,,,,,,0.0-1.0,0,,4821,"
    <p style=""width: 1000px; margin-bottom: 250px"">
    斯坦福大学语言学系邀请您参加一项研究。
    <BR><BR>您会完成一项跟语言有关的任务，例如读或听一些字、描述图片或场景、造句、或完成简单的语言游戏。
    <BR>本研究中没有已知的风险、成本或不适。
    <BR><BR>
    如果您同意参与这项研究，请继续。
    </p>
    <p style=""width: 1000px; font-size: 9pt; position: relative; text-align: justify"">
    如果您已读完此表格并决定参与此项目，请明白您的参与是自愿的，您有权随时撤回您的同意或停止参与，而不会受到惩罚或失去您原本可以享有的利益有权。 您有权拒绝回答任何问题。 您的个人隐私将在研究产生的所有已发布和书面数据中得到保护。
    <BR><BR>联系信息：问题、疑虑或投诉：如果您对本研究、其程序、风险和益处有任何问题、疑虑或投诉，请致电 (650) 723-4284 联系 Meghan Sumner 教授。如果您对这项研究的进行方式不满意，或者如果您对研究或您作为参与者的权利有任何疑虑、投诉或一般问题，请联系斯坦福机构审查委员会 (IRB) 发言与独立于研究团队的人联系 (650)-723-2480 或拨打免费电话 1-866-680-2906。 您也可以致函 Stanford IRB, Stanford University, Stanford, CA 94305-5401 或发送电子邮件至 irbnonmed@stanford.edu。
    </p>",,5292,,1,html-button-response,
109,English_Mandarin_some,,,,,,0.0-2.0, ,,2371,<p>这个实验将会播放音频。<BR><BR><strong><p2>您必须年满十八周岁才能参与此项实验，并且您需要会说中文、英文两种语言。</p2></strong> <br><br>请您在安静的地方用电脑完成这个实验，并确保您把<strong><p2>电脑音量调整至合适的程度</p2></strong>。 <br><br>请按空格键继续。</p>,,7664,,2,html-keyboard-response,
109,English_Mandarin_some,,,,,,0.0-3.0, ,,4644,在接下来的实验中，你将听到一些句子。你的任务是根据你是否同意这些句子来回答“是”或“否”。这个实验大约需要20分钟。<br><br>当你准备好开始时，请按下空格键。,,12309,,3,html-keyboard-response,
109,English_Mandarin_some,,,,,,0.0-4.0, ,,64302,"<h3><strong><big><p2>Context</p2></big></strong></h3> <br> <img src='image/0.jpg'; alt='gumball_machine'; align='right'; style='height:200px'> <p2 align='left'><big> You are at a candy store and are testing a row of gumball machines. These are special gumball machines that say how many gumballs you got. However, this report is sometimes faulty. </big></p2> <br><br> <img src='image/store_worker_1.jpg' alt='store_worker_sitting' align='left' style='height:200px'> <br><br> <p2 align='right'> <big> The store worker tells you that his boss has threatened to fire him if the gumball machines are left empty, and he really needs this job. He cannot see the machines from the register, but he can normally tell how full they are by the machines' statements.</big> </p2> <br><br><br> <img src='image/store_worker_2.jpg' alt='store_worker_standing' align='center' style='height:200px'> <p2 align='left'> <big> He asks you to tell him if the statement is right or wrong, so that he will know if a machine is empty and needs to be refilled. </big> </p2> <br><br>",,76610,,4,html-keyboard-response,
109,English_Mandarin_some,,,,,,0.0-5.0, ,,23758,"<p><font size=""5""> Place your right index finger on the <strong>J</strong> key and left index finger on the <strong>F</strong> key. <br><br><img src=""image/keypress.jpg""alt=""keyboard"" align=""center"" style=""height:400px""> <br><br> If you agree with the statement, press <strong>F</strong>; if you disagree with the statement, press <strong>J</strong>. <br>Use your thumb to press <strong>SPACE</strong> and do not move your index fingers. <br> <strong><p2>Please remember, you have four seconds to inform the worker after you hear the statement. </p2></strong> <br><br></p></font> ",,100369,,5,html-keyboard-response,
109,English_Mandarin_some,,,,,,0.0-6.0-0.0,,,,audio/kaching.wav,,101337,,6,audio-keyboard-response,
109,English_Mandarin_some,,,,,,0.0-6.0-1.0,,,,audio/all.wav,,102851,,7,audio-keyboard-response,
109,English_Mandarin_some,,,,,,0.0-6.0-2.0,f,,2698,<img src='image/13.jpg'; style='height:400px'>,,105551,,8,html-keyboard-response,
109,English_Mandarin_some,,,,,,0.0-6.0-3.0, ,,10371,<h3><big><p2> You let the store worker know that you agree with the statement. He therefore knows that the machine is empty and that he needs to refill the machine. </p2></big></h3><img src='image/store_worker_gumball.jpg'; style='height:400px'>,,115922,,9,html-keyboard-response,
109,English_Mandarin_some,,,,,,0.0-7.0-0.0,,,,audio/kaching.wav,,116612,,10,audio-keyboard-response,
109,English_Mandarin_some,,,,,,0.0-7.0-1.0,,,,audio/none.wav,,118212,,11,audio-keyboard-response,
109,English_Mandarin_some,,,,,,0.0-7.0-2.0,j,,6346,<img src='image/10.jpg'; style='height:400px'>,,124561,,12,html-keyboard-response,
109,English_Mandarin_some,,,,,,0.0-7.0-3.0, ,,8832,<h3><big><p2> You let the store worker know that you disagreed with the statement. He therefore knows that the machine is not empty and that he does not need to refill the machine. </p2></big></h3><img src='image/store_worker_gumball.jpg'; style='height:400px'>,,133394,,13,html-keyboard-response,
109,English_Mandarin_some,,,,,,0.0-8.0-0.0, ,,19504,"<h3><big><p2>Be Careful!</h3></big> <img src='image/13.jpg'; align='left'; style='height:200px'><h3><p2>One time, someone got this many gumballs and was told ""You got all of the gumballs."" <br>They pressed ""NO"" (J) telling the store worker that they disagreed with the statement. He thought the machine was not empty and that he did not need to refill it. He was fired.</br></p2></h3> <img src='image/store_worker_fired.jpg'; align='right'; style='height:200px'><br><br><br><br><br><br><br>",,152898,,14,html-keyboard-response,
109,English_Mandarin_some,,True,,,,0.0-8.0-1.0,a,,23934,"<h3><big>Quiz</big></h3><br>When will the store worker be fired? <br> Please press the corresponding button on the keyboard.（For instance, if you choose a, then press ""a"" on your keyboard）<br><br>a. When the machines are empty.<br> b. When the machines jam.<br> c. When the machines explode.<br> d. When the machines don't make a sound.",,177836,,15,categorize-html,
109,English_Mandarin_some,,,,,,0.0-9.0-0.0, ,,10157,"<h3>Let's start with four practice trials.</h3> Please make sure that your index fingers are on the J and F keys. <br><p2>Please remember, you have four seconds to inform the worker after you hear the statement.</p2></br></h3> <br><br><br><br><br><br>",,187994,,16,html-keyboard-response,
109,English_Mandarin_some,,,,,,0.0-9.0-1.0,,,,audio/kaching.wav,,188888,,17,audio-keyboard-response,
109,English_Mandarin_some,,,,,,0.0-9.0-2.0,f,false_alarm,2133,audio/all.wav,,191026,,18,audio-keyboard-response,
109,English_Mandarin_some,,,,,,0.0-9.0-3.0, ,,1263,,,192291,,19,html-keyboard-response,
109,English_Mandarin_some,,,,,,0.0-9.0-4.0,,,,audio/kaching.wav,,192985,,20,audio-keyboard-response,
109,English_Mandarin_some,,,,,,0.0-9.0-5.0,j,false_alarm,3296,audio/none.wav,,196287,,21,audio-keyboard-response,
109,English_Mandarin_some,,,,,,0.0-9.0-6.0, ,,1057,,,197345,,22,html-keyboard-response,
109,English_Mandarin_some,,,,,,0.0-9.0-7.0,,,,audio/kaching.wav,,198029,,23,audio-keyboard-response,
109,English_Mandarin_some,,,,,,0.0-9.0-8.0,j,false_alarm,2443,audio/all.wav,,200480,,24,audio-keyboard-response,
109,English_Mandarin_some,,,,,,0.0-9.0-9.0, ,,1041,,,201522,,25,html-keyboard-response,
109,English_Mandarin_some,,,,,,0.0-9.0-10.0,,,,audio/kaching.wav,,202211,,26,audio-keyboard-response,
109,English_Mandarin_some,,,,,,0.0-9.0-11.0,f,false_alarm,2720,audio/none.wav,,204934,,27,audio-keyboard-response,
109,English_Mandarin_some,,,,,,0.0-9.0-12.0, ,,704,,,205639,,28,html-keyboard-response,
109,English_Mandarin_some,,,,,,0.0-9.0-13.0, ,,29965,"<h3>Great! Now we can start the real experiment.</h3> Please make sure that your index fingers are on the J and F keys. <br><p2>Remember: J means ""agree"" and F means ""disagree""!</p2></br></h3> <br><br><br><br><br><br>",,235604,,29,html-keyboard-response,
109,English_Mandarin_some,,,,,,0.0-10.0-0.0,,,,audio/kaching.wav,,236279,,30,audio-keyboard-response,
109,English_Mandarin_some,,f,,,,0.0-10.0-1.0,j,false_alarm,3019,audio/six.wav,,239401,,31,audio-keyboard-response,
109,English_Mandarin_some,,,,,,0.0-10.0-2.0, ,,978,,,240380,,32,html-keyboard-response,
109,English_Mandarin_some,,,,,,0.0-10.0-0.1,,,,audio/kaching.wav,,241069,,33,audio-keyboard-response,
109,English_Mandarin_some,,j,,,,0.0-10.0-1.1,f,miss,2688,audio/none.wav,,243762,,34,audio-keyboard-response,
109,English_Mandarin_some,,,,,,0.0-10.0-2.1, ,,1267,,,245030,,35,html-keyboard-response,
109,English_Mandarin_some,,,,,,0.0-10.0-0.2,,,,audio/kaching.wav,,245720,,36,audio-keyboard-response,
109,English_Mandarin_some,,j,,,,0.0-10.0-1.2,f,miss,3243,audio/some-critical.wav,,249029,,37,audio-keyboard-response,
109,English_Mandarin_some,,,,,,0.0-10.0-2.2, ,,1062,,,250091,,38,html-keyboard-response,
109,English_Mandarin_some,,,,,,0.0-10.0-0.3,,,,audio/kaching.wav,,250783,,39,audio-keyboard-response,
109,English_Mandarin_some,,f,,,,0.0-10.0-1.3,j,false_alarm,2571,audio/some.wav,,253421,,40,audio-keyboard-response,
109,English_Mandarin_some,,,,,,0.0-10.0-2.3, ,,689,,,254110,,41,html-keyboard-response,
109,English_Mandarin_some,,,,,,0.0-10.0-0.4,,,,audio/kaching.wav,,254804,,42,audio-keyboard-response,
109,English_Mandarin_some,,j,,,,0.0-10.0-1.4,,false_alarm,,audio/some-critical.wav,,258807,,43,audio-keyboard-response,
109,English_Mandarin_some,,,,,,0.0-10.0-2.4, ,,1017,,,259824,,44,html-keyboard-response,
109,English_Mandarin_some,,,,,,0.0-10.0-0.5,,,,audio/kaching.wav,,260511,,45,audio-keyboard-response,
109,English_Mandarin_some,,j,,,,0.0-10.0-1.5,f,miss,2677,audio/six.wav,,263197,,46,audio-keyboard-response,
109,English_Mandarin_some,,,,,,0.0-10.0-2.5, ,,678,,,263876,,47,html-keyboard-response,
109,English_Mandarin_some,,,,,,0.0-10.0-0.6,,,,audio/kaching.wav,,264565,,48,audio-keyboard-response,
109,English_Mandarin_some,,j,,,,0.0-10.0-1.6,f,miss,1675,audio/two.wav,,266395,,49,audio-keyboard-response,
109,English_Mandarin_some,,,,,,0.0-10.0-2.6, ,,267,,,266663,,50,html-keyboard-response,
109,English_Mandarin_some,,,,,,0.0-10.0-0.7,,,,audio/kaching.wav,,267349,,51,audio-keyboard-response,
109,English_Mandarin_some,,f,,,,0.0-10.0-1.7,j,false_alarm,1952,audio/all.wav,,269307,,52,audio-keyboard-response,
109,English_Mandarin_some,,,,,,0.0-10.0-2.7, ,,454,,,269762,,53,html-keyboard-response,
109,English_Mandarin_some,,,,,,0.0-10.0-0.8,,,,audio/kaching.wav,,270453,,54,audio-keyboard-response,
109,English_Mandarin_some,,f,,,,0.0-10.0-1.8,j,false_alarm,1792,audio/none.wav,,272249,,55,audio-keyboard-response,
109,English_Mandarin_some,,,,,,0.0-10.0-2.8, ,,409,,,272659,,56,html-keyboard-response,
109,English_Mandarin_some,,,,,,0.0-10.0-0.9,,,,audio/kaching.wav,,273353,,57,audio-keyboard-response,
109,English_Mandarin_some,,f,,,,0.0-10.0-1.9,j,false_alarm,2176,audio/two.wav,,275532,,58,audio-keyboard-response,
109,English_Mandarin_some,,,,,,0.0-10.0-2.9, ,,428,,,275961,,59,html-keyboard-response,
109,English_Mandarin_some,,,,,,0.0-10.0-0.10,,,,audio/kaching.wav,,276650,,60,audio-keyboard-response,
109,English_Mandarin_some,,f,,,,0.0-10.0-1.10,f,hit,3051,audio/ten.wav,,279768,,61,audio-keyboard-response,
109,English_Mandarin_some,,,,,,0.0-10.0-2.10, ,,254,,,280022,,62,html-keyboard-response,
109,English_Mandarin_some,,,,,,0.0-10.0-0.11,,,,audio/kaching.wav,,280714,,63,audio-keyboard-response,
109,English_Mandarin_some,,f,,,,0.0-10.0-1.11,j,false_alarm,1547,audio/all.wav,,282261,,64,audio-keyboard-response,
109,English_Mandarin_some,,,,,,0.0-10.0-2.11, ,,274,,,282535,,65,html-keyboard-response,
109,English_Mandarin_some,,,,,,0.0-10.0-0.12,,,,audio/kaching.wav,,283220,,66,audio-keyboard-response,
109,English_Mandarin_some,,f,,,,0.0-10.0-1.12,j,false_alarm,2443,audio/some.wav,,285672,,67,audio-keyboard-response,
109,English_Mandarin_some,,,,,,0.0-10.0-2.12, ,,520,,,286193,,68,html-keyboard-response,
109,English_Mandarin_some,,,,,,0.0-10.0-0.13,,,,audio/kaching.wav,,286879,,69,audio-keyboard-response,
109,English_Mandarin_some,,j,,,,0.0-10.0-1.13,f,miss,1664,audio/two.wav,,288545,,70,audio-keyboard-response,
109,English_Mandarin_some,,,,,,0.0-10.0-2.13, ,,634,,,289179,,71,html-keyboard-response,
109,English_Mandarin_some,,,,,,0.0-10.0-0.14,,,,audio/kaching.wav,,289866,,72,audio-keyboard-response,
109,English_Mandarin_some,,f,,,,0.0-10.0-1.14,j,false_alarm,3488,audio/ten.wav,,293356,,73,audio-keyboard-response,
109,English_Mandarin_some,,,,,,0.0-10.0-2.14, ,,179,,,293536,,74,html-keyboard-response,
109,English_Mandarin_some,,,,,,0.0-10.0-0.15,,,,audio/kaching.wav,,294229,,75,audio-keyboard-response,
109,English_Mandarin_some,,j,,,,0.0-10.0-1.15,f,miss,2635,audio/six.wav,,296863,,76,audio-keyboard-response,
109,English_Mandarin_some,,,,,,0.0-10.0-2.15, ,,373,,,297237,,77,html-keyboard-response,
109,English_Mandarin_some,,,,,,0.0-10.0-0.16,,,,audio/kaching.wav,,297930,,78,audio-keyboard-response,
109,English_Mandarin_some,,f,,,,0.0-10.0-1.16,j,false_alarm,1632,audio/none.wav,,299571,,79,audio-keyboard-response,
109,English_Mandarin_some,,,,,,0.0-10.0-2.16, ,,244,,,299816,,80,html-keyboard-response,
109,English_Mandarin_some,,,,,,0.0-10.0-0.17,,,,audio/kaching.wav,,300500,,81,audio-keyboard-response,
109,English_Mandarin_some,,j,,,,0.0-10.0-1.17,f,miss,1888,audio/some.wav,,302394,,82,audio-keyboard-response,
109,English_Mandarin_some,,,,,,0.0-10.0-2.17, ,,305,,,302699,,83,html-keyboard-response,
109,English_Mandarin_some,,,,,,0.0-10.0-0.18,,,,audio/kaching.wav,,303391,,84,audio-keyboard-response,
109,English_Mandarin_some,,j,,,,0.0-10.0-1.18,f,miss,1685,audio/all.wav,,305082,,85,audio-keyboard-response,
109,English_Mandarin_some,,,,,,0.0-10.0-2.18, ,,177,,,305260,,86,html-keyboard-response,
109,English_Mandarin_some,,,,,,0.0-10.0-0.19,,,,audio/kaching.wav,,305951,,87,audio-keyboard-response,
109,English_Mandarin_some,,j,,,,0.0-10.0-1.19,f,miss,2027,audio/none.wav,,307979,,88,audio-keyboard-response,
109,English_Mandarin_some,,,,,,0.0-10.0-2.19, ,,199,,,308179,,89,html-keyboard-response,
109,English_Mandarin_some,,,,,,0.0-10.0-0.20,,,,audio/kaching.wav,,308863,,90,audio-keyboard-response,
109,English_Mandarin_some,,j,,,,0.0-10.0-1.20,f,miss,2923,audio/all.wav,,311789,,91,audio-keyboard-response,
109,English_Mandarin_some,,,,,,0.0-10.0-2.20, ,,388,,,312178,,92,html-keyboard-response,
109,English_Mandarin_some,,,,,,0.0-10.0-0.21,,,,audio/kaching.wav,,312866,,93,audio-keyboard-response,
109,English_Mandarin_some,,j,,,,0.0-10.0-1.21,f,miss,1600,audio/some.wav,,314476,,94,audio-keyboard-response,
109,English_Mandarin_some,,,,,,0.0-10.0-2.21, ,,204,,,314681,,95,html-keyboard-response,
109,English_Mandarin_some,,,,,,0.0-10.0-0.22,,,,audio/kaching.wav,,315373,,96,audio-keyboard-response,
109,English_Mandarin_some,,j,,,,0.0-10.0-1.22,f,miss,1653,audio/ten.wav,,317030,,97,audio-keyboard-response,
109,English_Mandarin_some,,,,,,0.0-10.0-2.22, ,,137,,,317168,,98,html-keyboard-response,
109,English_Mandarin_some,,,,,,0.0-10.0-0.23,,,,audio/kaching.wav,,317859,,99,audio-keyboard-response,
109,English_Mandarin_some,,j,,,,0.0-10.0-1.23,f,miss,2837,audio/some-critical.wav,,320701,,100,audio-keyboard-response,
109,English_Mandarin_some,,,,,,0.0-10.0-2.23, ,,574,,,321275,,101,html-keyboard-response,
109,English_Mandarin_some,,,,,,0.0-10.0-0.24,,,,audio/kaching.wav,,321965,,102,audio-keyboard-response,
109,English_Mandarin_some,,j,,,,0.0-10.0-1.24,f,miss,2933,audio/ten.wav,,324902,,103,audio-keyboard-response,
109,English_Mandarin_some,,,,,,0.0-10.0-2.24, ,,149,,,325052,,104,html-keyboard-response,
109,English_Mandarin_some,,,,,,0.0-10.0-0.25,,,,audio/kaching.wav,,325741,,105,audio-keyboard-response,
109,English_Mandarin_some,,j,,,,0.0-10.0-1.25,f,miss,1408,audio/some-critical.wav,,327151,,106,audio-keyboard-response,
109,English_Mandarin_some,,,,,,0.0-10.0-2.25, ,,169,,,327321,,107,html-keyboard-response,
109,English_Mandarin_some,,,,,,0.0-10.0-0.26,,,,audio/kaching.wav,,328013,,108,audio-keyboard-response,
109,English_Mandarin_some,,j,,,,0.0-10.0-1.26,f,miss,1835,audio/some-critical.wav,,329849,,109,audio-keyboard-response,
109,English_Mandarin_some,,,,,,0.0-10.0-2.26, ,,430,,,330280,,110,html-keyboard-response,
109,English_Mandarin_some,,,,,,0.0-10.0-0.27,,,,audio/kaching.wav,,330968,,111,audio-keyboard-response,
109,English_Mandarin_some,,j,,,,0.0-10.0-1.27,f,miss,3648,audio/some-critical.wav,,334619,,112,audio-keyboard-response,
109,English_Mandarin_some,,,,,,0.0-10.0-2.27, ,,274,,,334894,,113,html-keyboard-response,
109,English_Mandarin_some,,,,,,0.0-10.0-0.28,,,,audio/kaching.wav,,335587,,114,audio-keyboard-response,
109,English_Mandarin_some,,f,,,,0.0-10.0-1.28,j,false_alarm,3317,audio/two.wav,,338911,,115,audio-keyboard-response,
109,English_Mandarin_some,,,,,,0.0-10.0-2.28, ,,1253,,,340164,,116,html-keyboard-response,
109,English_Mandarin_some,,,,,,0.0-10.0-0.29,,,,audio/kaching.wav,,340856,,117,audio-keyboard-response,
109,English_Mandarin_some,,j,,,,0.0-10.0-1.29,f,miss,1504,audio/some-critical.wav,,342368,,118,audio-keyboard-response,
109,English_Mandarin_some,,,,,,0.0-10.0-2.29, ,,193,,,342562,,119,html-keyboard-response,
109,English_Mandarin_some,,,,,,0.0-10.0-0.30,,,,audio/kaching.wav,,343255,,120,audio-keyboard-response,
109,English_Mandarin_some,,f,,,,0.0-10.0-1.30,j,false_alarm,2368,audio/six.wav,,345630,,121,audio-keyboard-response,
109,English_Mandarin_some,,,,,,0.0-10.0-2.30, ,,549,,,346180,,122,html-keyboard-response,
109,English_Mandarin_some,,,,,,0.0-10.0-0.31,,,,audio/kaching.wav,,346872,,123,audio-keyboard-response,
109,English_Mandarin_some,,j,,,,0.0-10.0-1.31,f,miss,1227,audio/some-critical.wav,,348107,,124,audio-keyboard-response,
109,English_Mandarin_some,,,,,,0.0-10.0-2.31, ,,251,,,348358,,125,html-keyboard-response,
109,English_Mandarin_some,,True,,,,0.0-11.0-0.0,b,,11679,"接下来你将会用中文来完成剩下的试验。 <br><br><h3><big>测验</big></h3><br>店员何时会被解雇? <br>请按下选项相应的字母键（如选择a, 则按a键）<br><br>a. 当机器爆炸时。 <br> b. 当机器空了的时候。 <br> c. 当机器没有声音时。 <br> d. 当机器卡住时。",,361043,,126,categorize-html,
109,English_Mandarin_some,,,,,,0.0-12.0-0.0,,,,audio/kaching.wav,,361730,,127,audio-keyboard-response,
109,English_Mandarin_some,,j,,,,0.0-12.0-1.0,,false_alarm,,audio/10.wav,,365736,,128,audio-keyboard-response,
109,English_Mandarin_some,,,,,,0.0-12.0-2.0, ,,654,,,366391,,129,html-keyboard-response,
109,English_Mandarin_some,,,,,,0.0-12.0-0.1,,,,audio/kaching.wav,,367085,,130,audio-keyboard-response,
109,English_Mandarin_some,,f,,,,0.0-12.0-1.1,j,false_alarm,3232,audio/suoyou.wav,,370320,,131,audio-keyboard-response,
109,English_Mandarin_some,,,,,,0.0-12.0-2.1, ,,388,,,370708,,132,html-keyboard-response,
109,English_Mandarin_some,,,,,,0.0-12.0-0.2,,,,audio/kaching.wav,,371395,,133,audio-keyboard-response,
109,English_Mandarin_some,,j,,,,0.0-12.0-1.2,f,miss,1557,audio/suoyou.wav,,372952,,134,audio-keyboard-response,
109,English_Mandarin_some,,,,,,0.0-12.0-2.2, ,,163,,,373116,,135,html-keyboard-response,
109,English_Mandarin_some,,,,,,0.0-12.0-0.3,,,,audio/kaching.wav,,373801,,136,audio-keyboard-response,
109,English_Mandarin_some,,f,,,,0.0-12.0-1.3,j,false_alarm,2741,audio/6.wav,,376544,,137,audio-keyboard-response,
109,English_Mandarin_some,,,,,,0.0-12.0-2.3, ,,204,,,376748,,138,html-keyboard-response,
109,English_Mandarin_some,,,,,,0.0-12.0-0.4,,,,audio/kaching.wav,,377438,,139,audio-keyboard-response,
109,English_Mandarin_some,,j,,,,0.0-12.0-1.4,f,miss,1611,audio/yixie.wav,,379057,,140,audio-keyboard-response,
109,English_Mandarin_some,,,,,,0.0-12.0-2.4, ,,164,,,379221,,141,html-keyboard-response,
109,English_Mandarin_some,,,,,,0.0-12.0-0.5,,,,audio/kaching.wav,,379913,,142,audio-keyboard-response,
109,English_Mandarin_some,,j,,,,0.0-12.0-1.5,f,miss,917,audio/yixie.wav,,380831,,143,audio-keyboard-response,
109,English_Mandarin_some,,,,,,0.0-12.0-2.5, ,,214,,,381046,,144,html-keyboard-response,
109,English_Mandarin_some,,,,,,0.0-12.0-0.6,,,,audio/kaching.wav,,381738,,145,audio-keyboard-response,
109,English_Mandarin_some,,j,,,,0.0-12.0-1.6,f,miss,2976,audio/yixie-critical.wav,,384768,,146,audio-keyboard-response,
109,English_Mandarin_some,,,,,,0.0-12.0-2.6, ,,352,,,385121,,147,html-keyboard-response,
109,English_Mandarin_some,,,,,,0.0-12.0-0.7,,,,audio/kaching.wav,,385812,,148,audio-keyboard-response,
109,English_Mandarin_some,,j,,,,0.0-12.0-1.7,f,miss,1440,audio/6.wav,,387256,,149,audio-keyboard-response,
109,English_Mandarin_some,,,,,,0.0-12.0-2.7, ,,139,,,387395,,150,html-keyboard-response,
109,English_Mandarin_some,,,,,,0.0-12.0-0.8,,,,audio/kaching.wav,,388084,,151,audio-keyboard-response,
109,English_Mandarin_some,,j,,,,0.0-12.0-1.8,f,miss,1813,audio/yixie-critical.wav,,389903,,152,audio-keyboard-response,
109,English_Mandarin_some,,,,,,0.0-12.0-2.8, ,,163,,,390067,,153,html-keyboard-response,
109,English_Mandarin_some,,,,,,0.0-12.0-0.9,,,,audio/kaching.wav,,390751,,154,audio-keyboard-response,
109,English_Mandarin_some,,f,,,,0.0-12.0-1.9,f,hit,1248,audio/10.wav,,392001,,155,audio-keyboard-response,
109,English_Mandarin_some,,,,,,0.0-12.0-2.9, ,,119,,,392121,,156,html-keyboard-response,
109,English_Mandarin_some,,,,,,0.0-12.0-0.10,,,,audio/kaching.wav,,392809,,157,audio-keyboard-response,
109,English_Mandarin_some,,f,,,,0.0-12.0-1.10,j,false_alarm,1483,audio/meiyou.wav,,394300,,158,audio-keyboard-response,
109,English_Mandarin_some,,,,,,0.0-12.0-2.10, ,,708,,,395008,,159,html-keyboard-response,
109,English_Mandarin_some,,,,,,0.0-12.0-0.11,,,,audio/kaching.wav,,395700,,160,audio-keyboard-response,
109,English_Mandarin_some,,j,,,,0.0-12.0-1.11,f,miss,1013,audio/10.wav,,396717,,161,audio-keyboard-response,
109,English_Mandarin_some,,,,,,0.0-12.0-2.11, ,,154,,,396872,,162,html-keyboard-response,
109,English_Mandarin_some,,,,,,0.0-12.0-0.12,,,,audio/kaching.wav,,397566,,163,audio-keyboard-response,
109,English_Mandarin_some,,f,,,,0.0-12.0-1.12,j,false_alarm,1280,audio/yixie.wav,,398855,,164,audio-keyboard-response,
109,English_Mandarin_some,,,,,,0.0-12.0-2.12, ,,248,,,399104,,165,html-keyboard-response,
109,English_Mandarin_some,,,,,,0.0-12.0-0.13,,,,audio/kaching.wav,,399796,,166,audio-keyboard-response,
109,English_Mandarin_some,,j,,,,0.0-12.0-1.13,f,miss,2293,audio/2.wav,,402098,,167,audio-keyboard-response,
109,English_Mandarin_some,,,,,,0.0-12.0-2.13, ,,199,,,402298,,168,html-keyboard-response,
109,English_Mandarin_some,,,,,,0.0-12.0-0.14,,,,audio/kaching.wav,,402985,,169,audio-keyboard-response,
109,English_Mandarin_some,,f,,,,0.0-12.0-1.14,j,false_alarm,2123,audio/6.wav,,405115,,170,audio-keyboard-response,
109,English_Mandarin_some,,,,,,0.0-12.0-2.14, ,,160,,,405276,,171,html-keyboard-response,
109,English_Mandarin_some,,,,,,0.0-12.0-0.15,,,,audio/kaching.wav,,405961,,172,audio-keyboard-response,
109,English_Mandarin_some,,j,,,,0.0-12.0-1.15,f,miss,1227,audio/yixie-critical.wav,,407192,,173,audio-keyboard-response,
109,English_Mandarin_some,,,,,,0.0-12.0-2.15, ,,230,,,407423,,174,html-keyboard-response,
109,English_Mandarin_some,,,,,,0.0-12.0-0.16,,,,audio/kaching.wav,,408115,,175,audio-keyboard-response,
109,English_Mandarin_some,,f,,,,0.0-12.0-1.16,j,false_alarm,1376,audio/meiyou.wav,,409501,,176,audio-keyboard-response,
109,English_Mandarin_some,,,,,,0.0-12.0-2.16, ,,178,,,409680,,177,html-keyboard-response,
109,English_Mandarin_some,,,,,,0.0-12.0-0.17,,,,audio/kaching.wav,,410366,,178,audio-keyboard-response,
109,English_Mandarin_some,,j,,,,0.0-12.0-1.17,f,miss,1120,audio/yixie-critical.wav,,411488,,179,audio-keyboard-response,
109,English_Mandarin_some,,,,,,0.0-12.0-2.17, ,,544,,,412033,,180,html-keyboard-response,
109,English_Mandarin_some,,,,,,0.0-12.0-0.18,,,,audio/kaching.wav,,412724,,181,audio-keyboard-response,
109,English_Mandarin_some,,j,,,,0.0-12.0-1.18,f,miss,853,audio/yixie-critical.wav,,413579,,182,audio-keyboard-response,
109,English_Mandarin_some,,,,,,0.0-12.0-2.18, ,,153,,,413732,,183,html-keyboard-response,
109,English_Mandarin_some,,,,,,0.0-12.0-0.19,,,,audio/kaching.wav,,414420,,184,audio-keyboard-response,
109,English_Mandarin_some,,j,,,,0.0-12.0-1.19,f,miss,1088,audio/meiyou.wav,,415515,,185,audio-keyboard-response,
109,English_Mandarin_some,,,,,,0.0-12.0-2.19, ,,609,,,416125,,186,html-keyboard-response,
109,English_Mandarin_some,,,,,,0.0-12.0-0.20,,,,audio/kaching.wav,,416809,,187,audio-keyboard-response,
109,English_Mandarin_some,,j,,,,0.0-12.0-1.20,f,miss,971,audio/yixie-critical.wav,,417784,,188,audio-keyboard-response,
109,English_Mandarin_some,,,,,,0.0-12.0-2.20, ,,179,,,417963,,189,html-keyboard-response,
109,English_Mandarin_some,,,,,,0.0-12.0-0.21,,,,audio/kaching.wav,,418655,,190,audio-keyboard-response,
109,English_Mandarin_some,,j,,,,0.0-12.0-1.21,f,miss,1301,audio/meiyou.wav,,419957,,191,audio-keyboard-response,
109,English_Mandarin_some,,,,,,0.0-12.0-2.21, ,,169,,,420126,,192,html-keyboard-response,
109,English_Mandarin_some,,,,,,0.0-12.0-0.22,,,,audio/kaching.wav,,420820,,193,audio-keyboard-response,
109,English_Mandarin_some,,j,,,,0.0-12.0-1.22,f,miss,907,audio/yixie-critical.wav,,421731,,194,audio-keyboard-response,
109,English_Mandarin_some,,,,,,0.0-12.0-2.22, ,,138,,,421870,,195,html-keyboard-response,
109,English_Mandarin_some,,,,,,0.0-12.0-0.23,,,,audio/kaching.wav,,422559,,196,audio-keyboard-response,
109,English_Mandarin_some,,f,,,,0.0-12.0-1.23,j,false_alarm,2357,audio/yixie.wav,,424923,,197,audio-keyboard-response,
109,English_Mandarin_some,,,,,,0.0-12.0-2.23, ,,173,,,425097,,198,html-keyboard-response,
109,English_Mandarin_some,,,,,,0.0-12.0-0.24,,,,audio/kaching.wav,,425791,,199,audio-keyboard-response,
109,English_Mandarin_some,,f,,,,0.0-12.0-1.24,j,false_alarm,3371,audio/10.wav,,429168,,200,audio-keyboard-response,
109,English_Mandarin_some,,,,,,0.0-12.0-2.24, ,,185,,,429354,,201,html-keyboard-response,
109,English_Mandarin_some,,,,,,0.0-12.0-0.25,,,,audio/kaching.wav,,430047,,202,audio-keyboard-response,
109,English_Mandarin_some,,j,,,,0.0-12.0-1.25,f,miss,1024,audio/yixie-critical.wav,,431078,,203,audio-keyboard-response,
109,English_Mandarin_some,,,,,,0.0-12.0-2.25, ,,160,,,431238,,204,html-keyboard-response,
109,English_Mandarin_some,,,,,,0.0-12.0-0.26,,,,audio/kaching.wav,,431925,,205,audio-keyboard-response,
109,English_Mandarin_some,,f,,,,0.0-12.0-1.26,j,false_alarm,971,audio/2.wav,,432901,,206,audio-keyboard-response,
109,English_Mandarin_some,,,,,,0.0-12.0-2.26, ,,148,,,433051,,207,html-keyboard-response,
109,English_Mandarin_some,,,,,,0.0-12.0-0.27,,,,audio/kaching.wav,,433739,,208,audio-keyboard-response,
109,English_Mandarin_some,,j,,,,0.0-12.0-1.27,f,miss,1056,audio/2.wav,,434800,,209,audio-keyboard-response,
109,English_Mandarin_some,,,,,,0.0-12.0-2.27, ,,419,,,435220,,210,html-keyboard-response,
109,English_Mandarin_some,,,,,,0.0-12.0-0.28,,,,audio/kaching.wav,,435914,,211,audio-keyboard-response,
109,English_Mandarin_some,,f,,,,0.0-12.0-1.28,j,false_alarm,1579,audio/suoyou.wav,,437503,,212,audio-keyboard-response,
109,English_Mandarin_some,,,,,,0.0-12.0-2.28, ,,710,,,438213,,213,html-keyboard-response,
109,English_Mandarin_some,,,,,,0.0-12.0-0.29,,,,audio/kaching.wav,,438901,,214,audio-keyboard-response,
109,English_Mandarin_some,,j,,,,0.0-12.0-1.29,f,miss,2261,audio/6.wav,,441164,,215,audio-keyboard-response,
109,English_Mandarin_some,,,,,,0.0-12.0-2.29, ,,334,,,441499,,216,html-keyboard-response,
109,English_Mandarin_some,,,,,,0.0-12.0-0.30,,,,audio/kaching.wav,,442187,,217,audio-keyboard-response,
109,English_Mandarin_some,,j,,,,0.0-12.0-1.30,f,miss,2325,audio/suoyou.wav,,444512,,218,audio-keyboard-response,
109,English_Mandarin_some,,,,,,0.0-12.0-2.30, ,,449,,,444961,,219,html-keyboard-response,
109,English_Mandarin_some,,,,,,0.0-12.0-0.31,,,,audio/kaching.wav,,445653,,220,audio-keyboard-response,
109,English_Mandarin_some,,f,,,,0.0-12.0-1.31,j,false_alarm,843,audio/2.wav,,446504,,221,audio-keyboard-response,
109,English_Mandarin_some,,,,,,0.0-12.0-2.31, ,,245,,,446749,,222,html-keyboard-response,
109,English_Mandarin_some,[],,,,,0.0-13.0,"{'age': '25', 'P0_Q0': None, 'gender': 'Male', 'education': ' College (B.A., B.S.)', 'disability': [], 'place of residence': 'Ontario, Canada', 'disability explanation': ''}",,49472,,,496281,,223,survey,
109,English_Mandarin_some,[],,,,,0.0-14.0,"{'P0_Q0': None, 'eng ok age': 16, 'eng edu year': 8, 'eng start age': 9, 'Mandarin ok age': 6, 'eng country year': 10, 'English work year': 3, 'Mandarin edu year': 18, 'Mandarin start age': 4, 'Mandarin work year': 1, 'English family year': 2, 'Mandarin family year': '20+', 'Mandarin country year': 15}",,73103,,,569413,,224,survey,
109,English_Mandarin_some,[],,,,,0.0-15.0,"{'P0_Q0': None, 'eng count time': '10%', 'eng family time': '20%', 'eng friend time': '30%', 'Eng self talk time': '10%', 'English school time': '70%', 'Mandarin count time': '90%', 'Mandarin family time': '40%', 'Mandarin friend time': '50%', 'Mandarin school time': '10%', 'Mandarin self talk time': '50%', 'other language count time': '0%', 'other langauge family time': '0%', 'other language friend time': '0%', 'other languages school time': '0%', 'other language self talk time': '0%'}",,100111,,,669544,,225,survey,
109,English_Mandarin_some,[],,,,,0.0-16.0,"{'P0_Q0': None, 'eng prof read': 4, 'eng prof speak': 4, 'eng prof write': 4, 'Mandarin prof read': 6, 'Mandarin prof speak': 6, 'Mandarin prof write': 5, 'eng prof understand': 5, 'Mandarin prof understand': 6}",,25000,,,694560,,226,survey,
109,English_Mandarin_some,[],,,,,0.0-17.0,"{'P0_Q0': None, 'eng native': 5, 'Eng other eval': 5, 'Mandarin native': 6, 'eng cultural id': 5, 'eng attitude speak': 5, 'Mandarin other eval': 5, 'Mandarin cultural id': 6, 'Mandarin attitude speak': 6}",,27334,,,721907,,227,survey,
109,English_Mandarin_some,[],,,,,0.0-18.0,"{'P0_Q1': None, 'comments': ''}",,4111,,,726031,,228,survey,
114,English_Mandarin_some,,,[],[],[],0.0-0.0,,,,,True,4493,False,0,preload,
114,English_Mandarin_some,,,,,,0.0-1.0,0,,4954,"
    <p style=""width: 1000px; margin-bottom: 250px"">
    斯坦福大学语言学系邀请您参加一项研究。
    <BR><BR>您会完成一项跟语言有关的任务，例如读或听一些字、描述图片或场景、造句、或完成简单的语言游戏。
    <BR>本研究中没有已知的风险、成本或不适。
    <BR><BR>
    如果您同意参与这项研究，请继续。
    </p>
    <p style=""width: 1000px; font-size: 9pt; position: relative; text-align: justify"">
    如果您已读完此表格并决定参与此项目，请明白您的参与是自愿的，您有权随时撤回您的同意或停止参与，而不会受到惩罚或失去您原本可以享有的利益有权。 您有权拒绝回答任何问题。 您的个人隐私将在研究产生的所有已发布和书面数据中得到保护。
    <BR><BR>联系信息：问题、疑虑或投诉：如果您对本研究、其程序、风险和益处有任何问题、疑虑或投诉，请致电 (650) 723-4284 联系 Meghan Sumner 教授。如果您对这项研究的进行方式不满意，或者如果您对研究或您作为参与者的权利有任何疑虑、投诉或一般问题，请联系斯坦福机构审查委员会 (IRB) 发言与独立于研究团队的人联系 (650)-723-2480 或拨打免费电话 1-866-680-2906。 您也可以致函 Stanford IRB, Stanford University, Stanford, CA 94305-5401 或发送电子邮件至 irbnonmed@stanford.edu。
    </p>",,9449,,1,html-button-response,
114,English_Mandarin_some,,,,,,0.0-2.0, ,,5707,<p>这个实验将会播放音频。<BR><BR><strong><p2>您必须年满十八周岁才能参与此项实验，并且您需要会说中文、英文两种语言。</p2></strong> <br><br>请您在安静的地方用电脑完成这个实验，并确保您把<strong><p2>电脑音量调整至合适的程度</p2></strong>。 <br><br>请按空格键继续。</p>,,15157,,2,html-keyboard-response,
114,English_Mandarin_some,,,,,,0.0-3.0, ,,1966,在接下来的实验中，你将听到一些句子。你的任务是根据你是否同意这些句子来回答“是”或“否”。这个实验大约需要20分钟。<br><br>当你准备好开始时，请按下空格键。,,17123,,3,html-keyboard-response,
114,English_Mandarin_some,,,,,,0.0-4.0, ,,27021,"<h3><strong><big><p2>Context</p2></big></strong></h3> <br> <img src='image/0.jpg'; alt='gumball_machine'; align='right'; style='height:200px'> <p2 align='left'><big> You are at a candy store and are testing a row of gumball machines. These are special gumball machines that say how many gumballs you got. However, this report is sometimes faulty. </big></p2> <br><br> <img src='image/store_worker_1.jpg' alt='store_worker_sitting' align='left' style='height:200px'> <br><br> <p2 align='right'> <big> The store worker tells you that his boss has threatened to fire him if the gumball machines are left empty, and he really needs this job. He cannot see the machines from the register, but he can normally tell how full they are by the machines' statements.</big> </p2> <br><br><br> <img src='image/store_worker_2.jpg' alt='store_worker_standing' align='center' style='height:200px'> <p2 align='left'> <big> He asks you to tell him if the statement is right or wrong, so that he will know if a machine is empty and needs to be refilled. </big> </p2> <br><br>",,44147,,4,html-keyboard-response,
114,English_Mandarin_some,,,,,,0.0-5.0, ,,20879,"<p><font size=""5""> Place your right index finger on the <strong>J</strong> key and left index finger on the <strong>F</strong> key. <br><br><img src=""image/keypress.jpg""alt=""keyboard"" align=""center"" style=""height:400px""> <br><br> If you agree with the statement, press <strong>F</strong>; if you disagree with the statement, press <strong>J</strong>. <br>Use your thumb to press <strong>SPACE</strong> and do not move your index fingers. <br> <strong><p2>Please remember, you have four seconds to inform the worker after you hear the statement. </p2></strong> <br><br></p></font> ",,65028,,5,html-keyboard-response,
114,English_Mandarin_some,,,,,,0.0-6.0-0.0,,,,audio/kaching.wav,,65843,,6,audio-keyboard-response,
114,English_Mandarin_some,,,,,,0.0-6.0-1.0,,,,audio/all.wav,,67567,,7,audio-keyboard-response,
114,English_Mandarin_some,,,,,,0.0-6.0-2.0,f,,2739,<img src='image/13.jpg'; style='height:400px'>,,70307,,8,html-keyboard-response,
114,English_Mandarin_some,,,,,,0.0-6.0-3.0, ,,6640,<h3><big><p2> You let the store worker know that you agree with the statement. He therefore knows that the machine is empty and that he needs to refill the machine. </p2></big></h3><img src='image/store_worker_gumball.jpg'; style='height:400px'>,,76948,,9,html-keyboard-response,
114,English_Mandarin_some,,,,,,0.0-7.0-0.0,,,,audio/kaching.wav,,77639,,10,audio-keyboard-response,
114,English_Mandarin_some,,,,,,0.0-7.0-1.0,,,,audio/none.wav,,79410,,11,audio-keyboard-response,
114,English_Mandarin_some,,,,,,0.0-7.0-2.0,j,,906,<img src='image/10.jpg'; style='height:400px'>,,80316,,12,html-keyboard-response,
114,English_Mandarin_some,,,,,,0.0-7.0-3.0, ,,5311,<h3><big><p2> You let the store worker know that you disagreed with the statement. He therefore knows that the machine is not empty and that he does not need to refill the machine. </p2></big></h3><img src='image/store_worker_gumball.jpg'; style='height:400px'>,,85628,,13,html-keyboard-response,
114,English_Mandarin_some,,,,,,0.0-8.0-0.0, ,,20992,"<h3><big><p2>Be Careful!</h3></big> <img src='image/13.jpg'; align='left'; style='height:200px'><h3><p2>One time, someone got this many gumballs and was told ""You got all of the gumballs."" <br>They pressed ""NO"" (J) telling the store worker that they disagreed with the statement. He thought the machine was not empty and that he did not need to refill it. He was fired.</br></p2></h3> <img src='image/store_worker_fired.jpg'; align='right'; style='height:200px'><br><br><br><br><br><br><br>",,106621,,14,html-keyboard-response,
114,English_Mandarin_some,,True,,,,0.0-8.0-1.0,a,,8046,"<h3><big>Quiz</big></h3><br>When will the store worker be fired? <br> Please press the corresponding button on the keyboard.（For instance, if you choose a, then press ""a"" on your keyboard）<br><br>a. When the machines are empty.<br> b. When the machines jam.<br> c. When the machines explode.<br> d. When the machines don't make a sound.",,115672,,15,categorize-html,
114,English_Mandarin_some,,,,,,0.0-9.0-0.0, ,,3305,"<h3>Let's start with four practice trials.</h3> Please make sure that your index fingers are on the J and F keys. <br><p2>Please remember, you have four seconds to inform the worker after you hear the statement.</p2></br></h3> <br><br><br><br><br><br>",,118977,,16,html-keyboard-response,
114,English_Mandarin_some,,,,,,0.0-9.0-1.0,,,,audio/kaching.wav,,119668,,17,audio-keyboard-response,
114,English_Mandarin_some,,,,,,0.0-9.0-2.0,f,false_alarm,1683,audio/all.wav,,121354,,18,audio-keyboard-response,
114,English_Mandarin_some,,,,,,0.0-9.0-3.0, ,,1006,,,122361,,19,html-keyboard-response,
114,English_Mandarin_some,,,,,,0.0-9.0-4.0,,,,audio/kaching.wav,,123053,,20,audio-keyboard-response,
114,English_Mandarin_some,,,,,,0.0-9.0-5.0,j,false_alarm,1271,audio/none.wav,,124329,,21,audio-keyboard-response,
114,English_Mandarin_some,,,,,,0.0-9.0-6.0, ,,375,,,124705,,22,html-keyboard-response,
114,English_Mandarin_some,,,,,,0.0-9.0-7.0,,,,audio/kaching.wav,,125392,,23,audio-keyboard-response,
114,English_Mandarin_some,,,,,,0.0-9.0-8.0,j,false_alarm,1376,audio/all.wav,,126769,,24,audio-keyboard-response,
114,English_Mandarin_some,,,,,,0.0-9.0-9.0, ,,296,,,127066,,25,html-keyboard-response,
114,English_Mandarin_some,,,,,,0.0-9.0-10.0,,,,audio/kaching.wav,,127755,,26,audio-keyboard-response,
114,English_Mandarin_some,,,,,,0.0-9.0-11.0,f,false_alarm,1573,audio/none.wav,,129330,,27,audio-keyboard-response,
114,English_Mandarin_some,,,,,,0.0-9.0-12.0, ,,303,,,129634,,28,html-keyboard-response,
114,English_Mandarin_some,,,,,,0.0-9.0-13.0, ,,5128,"<h3>Great! Now we can start the real experiment.</h3> Please make sure that your index fingers are on the J and F keys. <br><p2>Remember: J means ""agree"" and F means ""disagree""!</p2></br></h3> <br><br><br><br><br><br>",,134762,,29,html-keyboard-response,
114,English_Mandarin_some,,,,,,0.0-10.0-0.0,,,,audio/kaching.wav,,135452,,30,audio-keyboard-response,
114,English_Mandarin_some,,f,,,,0.0-10.0-1.0,f,hit,1782,audio/two.wav,,137458,,31,audio-keyboard-response,
114,English_Mandarin_some,,,,,,0.0-10.0-2.0, ,,287,,,137746,,32,html-keyboard-response,
114,English_Mandarin_some,,,,,,0.0-10.0-0.1,,,,audio/kaching.wav,,138436,,33,audio-keyboard-response,
114,English_Mandarin_some,,j,,,,0.0-10.0-1.1,j,correct_rejection,1242,audio/some.wav,,139954,,34,audio-keyboard-response,
114,English_Mandarin_some,,,,,,0.0-10.0-2.1, ,,271,,,140226,,35,html-keyboard-response,
114,English_Mandarin_some,,,,,,0.0-10.0-0.2,,,,audio/kaching.wav,,140915,,36,audio-keyboard-response,
114,English_Mandarin_some,,f,,,,0.0-10.0-1.2,f,hit,1573,audio/six.wav,,142874,,37,audio-keyboard-response,
114,English_Mandarin_some,,,,,,0.0-10.0-2.2, ,,303,,,143177,,38,html-keyboard-response,
114,English_Mandarin_some,,,,,,0.0-10.0-0.3,,,,audio/kaching.wav,,143864,,39,audio-keyboard-response,
114,English_Mandarin_some,,f,,,,0.0-10.0-1.3,f,hit,1225,audio/all.wav,,145090,,40,audio-keyboard-response,
114,English_Mandarin_some,,,,,,0.0-10.0-2.3, ,,271,,,145362,,41,html-keyboard-response,
114,English_Mandarin_some,,,,,,0.0-10.0-0.4,,,,audio/kaching.wav,,146053,,42,audio-keyboard-response,
114,English_Mandarin_some,,j,,,,0.0-10.0-1.4,f,miss,1324,audio/some-critical.wav,,147594,,43,audio-keyboard-response,
114,English_Mandarin_some,,,,,,0.0-10.0-2.4, ,,295,,,147890,,44,html-keyboard-response,
114,English_Mandarin_some,,,,,,0.0-10.0-0.5,,,,audio/kaching.wav,,148578,,45,audio-keyboard-response,
114,English_Mandarin_some,,f,,,,0.0-10.0-1.5,f,hit,1300,audio/none.wav,,149882,,46,audio-keyboard-response,
114,English_Mandarin_some,,,,,,0.0-10.0-2.5, ,,248,,,150130,,47,html-keyboard-response,
114,English_Mandarin_some,,,,,,0.0-10.0-0.6,,,,audio/kaching.wav,,150819,,48,audio-keyboard-response,
114,English_Mandarin_some,,j,,,,0.0-10.0-1.6,j,correct_rejection,1213,audio/all.wav,,152034,,49,audio-keyboard-response,
114,English_Mandarin_some,,,,,,0.0-10.0-2.6, ,,215,,,152250,,50,html-keyboard-response,
114,English_Mandarin_some,,,,,,0.0-10.0-0.7,,,,audio/kaching.wav,,152938,,51,audio-keyboard-response,
114,English_Mandarin_some,,j,,,,0.0-10.0-1.7,f,miss,1271,audio/some-critical.wav,,154210,,52,audio-keyboard-response,
114,English_Mandarin_some,,,,,,0.0-10.0-2.7, ,,223,,,154434,,53,html-keyboard-response,
114,English_Mandarin_some,,,,,,0.0-10.0-0.8,,,,audio/kaching.wav,,155120,,54,audio-keyboard-response,
114,English_Mandarin_some,,f,,,,0.0-10.0-1.8,f,hit,1109,audio/some.wav,,156234,,55,audio-keyboard-response,
114,English_Mandarin_some,,,,,,0.0-10.0-2.8, ,,184,,,156418,,56,html-keyboard-response,
114,English_Mandarin_some,,,,,,0.0-10.0-0.9,,,,audio/kaching.wav,,157106,,57,audio-keyboard-response,
114,English_Mandarin_some,,f,,,,0.0-10.0-1.9,f,hit,1091,audio/none.wav,,158202,,58,audio-keyboard-response,
114,English_Mandarin_some,,,,,,0.0-10.0-2.9, ,,215,,,158418,,59,html-keyboard-response,
114,English_Mandarin_some,,,,,,0.0-10.0-0.10,,,,audio/kaching.wav,,159108,,60,audio-keyboard-response,
114,English_Mandarin_some,,j,,,,0.0-10.0-1.10,f,miss,1097,audio/some-critical.wav,,160211,,61,audio-keyboard-response,
114,English_Mandarin_some,,,,,,0.0-10.0-2.10, ,,175,,,160386,,62,html-keyboard-response,
114,English_Mandarin_some,,,,,,0.0-10.0-0.11,,,,audio/kaching.wav,,161076,,63,audio-keyboard-response,
114,English_Mandarin_some,,f,,,,0.0-10.0-1.11,f,hit,1434,audio/six.wav,,162514,,64,audio-keyboard-response,
114,English_Mandarin_some,,,,,,0.0-10.0-2.11, ,,167,,,162682,,65,html-keyboard-response,
114,English_Mandarin_some,,,,,,0.0-10.0-0.12,,,,audio/kaching.wav,,163369,,66,audio-keyboard-response,
114,English_Mandarin_some,,j,,,,0.0-10.0-1.12,j,correct_rejection,1312,audio/two.wav,,164682,,67,audio-keyboard-response,
114,English_Mandarin_some,,,,,,0.0-10.0-2.12, ,,224,,,164906,,68,html-keyboard-response,
114,English_Mandarin_some,,,,,,0.0-10.0-0.13,,,,audio/kaching.wav,,165593,,69,audio-keyboard-response,
114,English_Mandarin_some,,j,,,,0.0-10.0-1.13,f,miss,1190,audio/some-critical.wav,,166787,,70,audio-keyboard-response,
114,English_Mandarin_some,,,,,,0.0-10.0-2.13, ,,215,,,167002,,71,html-keyboard-response,
114,English_Mandarin_some,,,,,,0.0-10.0-0.14,,,,audio/kaching.wav,,167688,,72,audio-keyboard-response,
114,English_Mandarin_some,,j,,,,0.0-10.0-1.14,f,miss,1457,audio/ten.wav,,169403,,73,audio-keyboard-response,
114,English_Mandarin_some,,,,,,0.0-10.0-2.14, ,,175,,,169579,,74,html-keyboard-response,
114,English_Mandarin_some,,,,,,0.0-10.0-0.15,,,,audio/kaching.wav,,170266,,75,audio-keyboard-response,
114,English_Mandarin_some,,j,,,,0.0-10.0-1.15,f,miss,1614,audio/ten.wav,,171883,,76,audio-keyboard-response,
114,English_Mandarin_some,,,,,,0.0-10.0-2.15, ,,151,,,172035,,77,html-keyboard-response,
114,English_Mandarin_some,,,,,,0.0-10.0-0.16,,,,audio/kaching.wav,,172722,,78,audio-keyboard-response,
114,English_Mandarin_some,,j,,,,0.0-10.0-1.16,j,correct_rejection,1167,audio/none.wav,,173890,,79,audio-keyboard-response,
114,English_Mandarin_some,,,,,,0.0-10.0-2.16, ,,200,,,174091,,80,html-keyboard-response,
114,English_Mandarin_some,,,,,,0.0-10.0-0.17,,,,audio/kaching.wav,,174782,,81,audio-keyboard-response,
114,English_Mandarin_some,,j,,,,0.0-10.0-1.17,j,correct_rejection,1242,audio/six.wav,,176027,,82,audio-keyboard-response,
114,English_Mandarin_some,,,,,,0.0-10.0-2.17, ,,272,,,176299,,83,html-keyboard-response,
114,English_Mandarin_some,,,,,,0.0-10.0-0.18,,,,audio/kaching.wav,,176988,,84,audio-keyboard-response,
114,English_Mandarin_some,,j,,,,0.0-10.0-1.18,f,miss,1167,audio/some-critical.wav,,178155,,85,audio-keyboard-response,
114,English_Mandarin_some,,,,,,0.0-10.0-2.18, ,,183,,,178339,,86,html-keyboard-response,
114,English_Mandarin_some,,,,,,0.0-10.0-0.19,,,,audio/kaching.wav,,179026,,87,audio-keyboard-response,
114,English_Mandarin_some,,f,,,,0.0-10.0-1.19,f,hit,1393,audio/ten.wav,,180419,,88,audio-keyboard-response,
114,English_Mandarin_some,,,,,,0.0-10.0-2.19, ,,175,,,180595,,89,html-keyboard-response,
114,English_Mandarin_some,,,,,,0.0-10.0-0.20,,,,audio/kaching.wav,,181284,,90,audio-keyboard-response,
114,English_Mandarin_some,,j,,,,0.0-10.0-1.20,j,correct_rejection,1173,audio/two.wav,,182459,,91,audio-keyboard-response,
114,English_Mandarin_some,,,,,,0.0-10.0-2.20, ,,215,,,182675,,92,html-keyboard-response,
114,English_Mandarin_some,,,,,,0.0-10.0-0.21,,,,audio/kaching.wav,,183362,,93,audio-keyboard-response,
114,English_Mandarin_some,,j,,,,0.0-10.0-1.21,j,correct_rejection,1318,audio/none.wav,,184683,,94,audio-keyboard-response,
114,English_Mandarin_some,,,,,,0.0-10.0-2.21, ,,168,,,184851,,95,html-keyboard-response,
114,English_Mandarin_some,,,,,,0.0-10.0-0.22,,,,audio/kaching.wav,,185539,,96,audio-keyboard-response,
114,English_Mandarin_some,,j,,,,0.0-10.0-1.22,f,miss,1231,audio/some-critical.wav,,186771,,97,audio-keyboard-response,
114,English_Mandarin_some,,,,,,0.0-10.0-2.22, ,,135,,,186907,,98,html-keyboard-response,
114,English_Mandarin_some,,,,,,0.0-10.0-0.23,,,,audio/kaching.wav,,187594,,99,audio-keyboard-response,
114,English_Mandarin_some,,j,,,,0.0-10.0-1.23,f,miss,929,audio/some-critical.wav,,188523,,100,audio-keyboard-response,
114,English_Mandarin_some,,,,,,0.0-10.0-2.23, ,,175,,,188699,,101,html-keyboard-response,
114,English_Mandarin_some,,,,,,0.0-10.0-0.24,,,,audio/kaching.wav,,189388,,102,audio-keyboard-response,
114,English_Mandarin_some,,j,,,,0.0-10.0-1.24,j,correct_rejection,1422,audio/six.wav,,190811,,103,audio-keyboard-response,
114,English_Mandarin_some,,,,,,0.0-10.0-2.24, ,,175,,,190987,,104,html-keyboard-response,
114,English_Mandarin_some,,,,,,0.0-10.0-0.25,,,,audio/kaching.wav,,191675,,105,audio-keyboard-response,
114,English_Mandarin_some,,j,,,,0.0-10.0-1.25,j,correct_rejection,1219,audio/some.wav,,192900,,106,audio-keyboard-response,
114,English_Mandarin_some,,,,,,0.0-10.0-2.25, ,,167,,,193067,,107,html-keyboard-response,
114,English_Mandarin_some,,,,,,0.0-10.0-0.26,,,,audio/kaching.wav,,193753,,108,audio-keyboard-response,
114,English_Mandarin_some,,f,,,,0.0-10.0-1.26,f,hit,1173,audio/ten.wav,,194931,,109,audio-keyboard-response,
114,English_Mandarin_some,,,,,,0.0-10.0-2.26, ,,175,,,195107,,110,html-keyboard-response,
114,English_Mandarin_some,,,,,,0.0-10.0-0.27,,,,audio/kaching.wav,,195797,,111,audio-keyboard-response,
114,English_Mandarin_some,,j,,,,0.0-10.0-1.27,j,correct_rejection,1097,audio/all.wav,,196899,,112,audio-keyboard-response,
114,English_Mandarin_some,,,,,,0.0-10.0-2.27, ,,183,,,197083,,113,html-keyboard-response,
114,English_Mandarin_some,,,,,,0.0-10.0-0.28,,,,audio/kaching.wav,,197771,,114,audio-keyboard-response,
114,English_Mandarin_some,,f,,,,0.0-10.0-1.28,f,hit,1109,audio/two.wav,,198884,,115,audio-keyboard-response,
114,English_Mandarin_some,,,,,,0.0-10.0-2.28, ,,231,,,199115,,116,html-keyboard-response,
114,English_Mandarin_some,,,,,,0.0-10.0-0.29,,,,audio/kaching.wav,,199802,,117,audio-keyboard-response,
114,English_Mandarin_some,,f,,,,0.0-10.0-1.29,f,hit,1022,audio/all.wav,,200827,,118,audio-keyboard-response,
114,English_Mandarin_some,,,,,,0.0-10.0-2.29, ,,200,,,201028,,119,html-keyboard-response,
114,English_Mandarin_some,,,,,,0.0-10.0-0.30,,,,audio/kaching.wav,,201718,,120,audio-keyboard-response,
114,English_Mandarin_some,,f,,,,0.0-10.0-1.30,f,hit,1161,audio/some.wav,,202884,,121,audio-keyboard-response,
114,English_Mandarin_some,,,,,,0.0-10.0-2.30, ,,160,,,203044,,122,html-keyboard-response,
114,English_Mandarin_some,,,,,,0.0-10.0-0.31,,,,audio/kaching.wav,,203733,,123,audio-keyboard-response,
114,English_Mandarin_some,,j,,,,0.0-10.0-1.31,f,miss,1178,audio/some-critical.wav,,204916,,124,audio-keyboard-response,
114,English_Mandarin_some,,,,,,0.0-10.0-2.31, ,,135,,,205052,,125,html-keyboard-response,
114,English_Mandarin_some,,True,,,,0.0-11.0-0.0,b,,4039,"接下来你将会用中文来完成剩下的试验。 <br><br><h3><big>测验</big></h3><br>店员何时会被解雇? <br>请按下选项相应的字母键（如选择a, 则按a键）<br><br>a. 当机器爆炸时。 <br> b. 当机器空了的时候。 <br> c. 当机器没有声音时。 <br> d. 当机器卡住时。",,210094,,126,categorize-html,
114,English_Mandarin_some,,,,,,0.0-12.0-0.0,,,,audio/kaching.wav,,210786,,127,audio-keyboard-response,
114,English_Mandarin_some,,f,,,,0.0-12.0-1.0,f,hit,1550,audio/2.wav,,212340,,128,audio-keyboard-response,
114,English_Mandarin_some,,,,,,0.0-12.0-2.0, ,,151,,,212492,,129,html-keyboard-response,
114,English_Mandarin_some,,,,,,0.0-12.0-0.1,,,,audio/kaching.wav,,213178,,130,audio-keyboard-response,
114,English_Mandarin_some,,f,,,,0.0-12.0-1.1,f,hit,830,audio/suoyou.wav,,214011,,131,audio-keyboard-response,
114,English_Mandarin_some,,,,,,0.0-12.0-2.1, ,,192,,,214204,,132,html-keyboard-response,
114,English_Mandarin_some,,,,,,0.0-12.0-0.2,,,,audio/kaching.wav,,214890,,133,audio-keyboard-response,
114,English_Mandarin_some,,j,,,,0.0-12.0-1.2,j,correct_rejection,888,audio/suoyou.wav,,215780,,134,audio-keyboard-response,
114,English_Mandarin_some,,,,,,0.0-12.0-2.2, ,,199,,,215980,,135,html-keyboard-response,
114,English_Mandarin_some,,,,,,0.0-12.0-0.3,,,,audio/kaching.wav,,216667,,136,audio-keyboard-response,
114,English_Mandarin_some,,f,,,,0.0-12.0-1.3,f,hit,749,audio/suoyou.wav,,217420,,137,audio-keyboard-response,
114,English_Mandarin_some,,,,,,0.0-12.0-2.3, ,,184,,,217604,,138,html-keyboard-response,
114,English_Mandarin_some,,,,,,0.0-12.0-0.4,,,,audio/kaching.wav,,218292,,139,audio-keyboard-response,
114,English_Mandarin_some,,j,,,,0.0-12.0-1.4,j,correct_rejection,1295,audio/6.wav,,219589,,140,audio-keyboard-response,
114,English_Mandarin_some,,,,,,0.0-12.0-2.4, ,,199,,,219788,,141,html-keyboard-response,
114,English_Mandarin_some,,,,,,0.0-12.0-0.5,,,,audio/kaching.wav,,220475,,142,audio-keyboard-response,
114,English_Mandarin_some,,j,,,,0.0-12.0-1.5,f,miss,1231,audio/yixie-critical.wav,,222284,,143,audio-keyboard-response,
114,English_Mandarin_some,,,,,,0.0-12.0-2.5, ,,192,,,222476,,144,html-keyboard-response,
114,English_Mandarin_some,,,,,,0.0-12.0-0.6,,,,audio/kaching.wav,,223163,,145,audio-keyboard-response,
114,English_Mandarin_some,,f,,,,0.0-12.0-1.6,f,hit,801,audio/2.wav,,223964,,146,audio-keyboard-response,
114,English_Mandarin_some,,,,,,0.0-12.0-2.6, ,,144,,,224109,,147,html-keyboard-response,
114,English_Mandarin_some,,,,,,0.0-12.0-0.7,,,,audio/kaching.wav,,224800,,148,audio-keyboard-response,
114,English_Mandarin_some,,j,,,,0.0-12.0-1.7,j,correct_rejection,1306,audio/yixie.wav,,226108,,149,audio-keyboard-response,
114,English_Mandarin_some,,,,,,0.0-12.0-2.7, ,,184,,,226292,,150,html-keyboard-response,
114,English_Mandarin_some,,,,,,0.0-12.0-0.8,,,,audio/kaching.wav,,226982,,151,audio-keyboard-response,
114,English_Mandarin_some,,j,,,,0.0-12.0-1.8,j,correct_rejection,853,audio/2.wav,,227836,,152,audio-keyboard-response,
114,English_Mandarin_some,,,,,,0.0-12.0-2.8, ,,167,,,228004,,153,html-keyboard-response,
114,English_Mandarin_some,,,,,,0.0-12.0-0.9,,,,audio/kaching.wav,,228695,,154,audio-keyboard-response,
114,English_Mandarin_some,,j,,,,0.0-12.0-1.9,f,miss,865,audio/yixie-critical.wav,,229564,,155,audio-keyboard-response,
114,English_Mandarin_some,,,,,,0.0-12.0-2.9, ,,167,,,229732,,156,html-keyboard-response,
114,English_Mandarin_some,,,,,,0.0-12.0-0.10,,,,audio/kaching.wav,,230419,,157,audio-keyboard-response,
114,English_Mandarin_some,,j,,,,0.0-12.0-1.10,f,miss,853,audio/yixie-critical.wav,,231276,,158,audio-keyboard-response,
114,English_Mandarin_some,,,,,,0.0-12.0-2.10, ,,128,,,231405,,159,html-keyboard-response,
114,English_Mandarin_some,,,,,,0.0-12.0-0.11,,,,audio/kaching.wav,,232091,,160,audio-keyboard-response,
114,English_Mandarin_some,,j,,,,0.0-12.0-1.11,f,miss,726,audio/yixie-critical.wav,,232821,,161,audio-keyboard-response,
114,English_Mandarin_some,,,,,,0.0-12.0-2.11, ,,160,,,232981,,162,html-keyboard-response,
114,English_Mandarin_some,,,,,,0.0-12.0-0.12,,,,audio/kaching.wav,,233670,,163,audio-keyboard-response,
114,English_Mandarin_some,,f,,,,0.0-12.0-1.12,f,hit,1109,audio/yixie.wav,,234781,,164,audio-keyboard-response,
114,English_Mandarin_some,,,,,,0.0-12.0-2.12, ,,135,,,234917,,165,html-keyboard-response,
114,English_Mandarin_some,,,,,,0.0-12.0-0.13,,,,audio/kaching.wav,,235603,,166,audio-keyboard-response,
114,English_Mandarin_some,,f,,,,0.0-12.0-1.13,f,hit,1393,audio/meiyou.wav,,236997,,167,audio-keyboard-response,
114,English_Mandarin_some,,,,,,0.0-12.0-2.13, ,,303,,,237300,,168,html-keyboard-response,
114,English_Mandarin_some,,,,,,0.0-12.0-0.14,,,,audio/kaching.wav,,237989,,169,audio-keyboard-response,
114,English_Mandarin_some,,j,,,,0.0-12.0-1.14,f,miss,923,audio/yixie-critical.wav,,238917,,170,audio-keyboard-response,
114,English_Mandarin_some,,,,,,0.0-12.0-2.14, ,,127,,,239045,,171,html-keyboard-response,
114,English_Mandarin_some,,,,,,0.0-12.0-0.15,,,,audio/kaching.wav,,239736,,172,audio-keyboard-response,
114,English_Mandarin_some,,j,,,,0.0-12.0-1.15,f,miss,760,audio/yixie-critical.wav,,240501,,173,audio-keyboard-response,
114,English_Mandarin_some,,,,,,0.0-12.0-2.15, ,,144,,,240645,,174,html-keyboard-response,
114,English_Mandarin_some,,,,,,0.0-12.0-0.16,,,,audio/kaching.wav,,241333,,175,audio-keyboard-response,
114,English_Mandarin_some,,j,,,,0.0-12.0-1.16,j,correct_rejection,964,audio/yixie.wav,,242301,,176,audio-keyboard-response,
114,English_Mandarin_some,,,,,,0.0-12.0-2.16, ,,216,,,242517,,177,html-keyboard-response,
114,English_Mandarin_some,,,,,,0.0-12.0-0.17,,,,audio/kaching.wav,,243208,,178,audio-keyboard-response,
114,English_Mandarin_some,,j,,,,0.0-12.0-1.17,j,correct_rejection,917,audio/meiyou.wav,,244125,,179,audio-keyboard-response,
114,English_Mandarin_some,,,,,,0.0-12.0-2.17, ,,183,,,244309,,180,html-keyboard-response,
114,English_Mandarin_some,,,,,,0.0-12.0-0.18,,,,audio/kaching.wav,,244996,,181,audio-keyboard-response,
114,English_Mandarin_some,,f,,,,0.0-12.0-1.18,f,hit,1428,audio/10.wav,,246429,,182,audio-keyboard-response,
114,English_Mandarin_some,,,,,,0.0-12.0-2.18, ,,175,,,246605,,183,html-keyboard-response,
114,English_Mandarin_some,,,,,,0.0-12.0-0.19,,,,audio/kaching.wav,,247295,,184,audio-keyboard-response,
114,English_Mandarin_some,,f,,,,0.0-12.0-1.19,f,hit,1045,audio/10.wav,,248341,,185,audio-keyboard-response,
114,English_Mandarin_some,,,,,,0.0-12.0-2.19, ,,143,,,248485,,186,html-keyboard-response,
114,English_Mandarin_some,,,,,,0.0-12.0-0.20,,,,audio/kaching.wav,,249176,,187,audio-keyboard-response,
114,English_Mandarin_some,,j,,,,0.0-12.0-1.20,f,miss,1027,audio/yixie-critical.wav,,250205,,188,audio-keyboard-response,
114,English_Mandarin_some,,,,,,0.0-12.0-2.20, ,,80,,,250285,,189,html-keyboard-response,
114,English_Mandarin_some,,,,,,0.0-12.0-0.21,,,,audio/kaching.wav,,250975,,190,audio-keyboard-response,
114,English_Mandarin_some,,j,,,,0.0-12.0-1.21,j,correct_rejection,755,audio/2.wav,,251733,,191,audio-keyboard-response,
114,English_Mandarin_some,,,,,,0.0-12.0-2.21, ,,200,,,251933,,192,html-keyboard-response,
114,English_Mandarin_some,,,,,,0.0-12.0-0.22,,,,audio/kaching.wav,,252624,,193,audio-keyboard-response,
114,English_Mandarin_some,,f,,,,0.0-12.0-1.22,f,hit,1881,audio/6.wav,,254509,,194,audio-keyboard-response,
114,English_Mandarin_some,,,,,,0.0-12.0-2.22, ,,119,,,254629,,195,html-keyboard-response,
114,English_Mandarin_some,,,,,,0.0-12.0-0.23,,,,audio/kaching.wav,,255317,,196,audio-keyboard-response,
114,English_Mandarin_some,,j,,,,0.0-12.0-1.23,j,correct_rejection,1103,audio/suoyou.wav,,256421,,197,audio-keyboard-response,
114,English_Mandarin_some,,,,,,0.0-12.0-2.23, ,,144,,,256566,,198,html-keyboard-response,
114,English_Mandarin_some,,,,,,0.0-12.0-0.24,,,,audio/kaching.wav,,257256,,199,audio-keyboard-response,
114,English_Mandarin_some,,f,,,,0.0-12.0-1.24,f,hit,1776,audio/6.wav,,259037,,200,audio-keyboard-response,
114,English_Mandarin_some,,,,,,0.0-12.0-2.24, ,,119,,,259157,,201,html-keyboard-response,
114,English_Mandarin_some,,,,,,0.0-12.0-0.25,,,,audio/kaching.wav,,259845,,202,audio-keyboard-response,
114,English_Mandarin_some,,j,,,,0.0-12.0-1.25,j,correct_rejection,998,audio/meiyou.wav,,260846,,203,audio-keyboard-response,
114,English_Mandarin_some,,,,,,0.0-12.0-2.25, ,,159,,,261005,,204,html-keyboard-response,
114,English_Mandarin_some,,,,,,0.0-12.0-0.26,,,,audio/kaching.wav,,261691,,205,audio-keyboard-response,
114,English_Mandarin_some,,f,,,,0.0-12.0-1.26,f,hit,877,audio/yixie.wav,,262573,,206,audio-keyboard-response,
114,English_Mandarin_some,,,,,,0.0-12.0-2.26, ,,127,,,262701,,207,html-keyboard-response,
114,English_Mandarin_some,,,,,,0.0-12.0-0.27,,,,audio/kaching.wav,,263392,,208,audio-keyboard-response,
114,English_Mandarin_some,,j,,,,0.0-12.0-1.27,j,correct_rejection,1579,audio/6.wav,,264973,,209,audio-keyboard-response,
114,English_Mandarin_some,,,,,,0.0-12.0-2.27, ,,136,,,265109,,210,html-keyboard-response,
114,English_Mandarin_some,,,,,,0.0-12.0-0.28,,,,audio/kaching.wav,,265796,,211,audio-keyboard-response,
114,English_Mandarin_some,,j,,,,0.0-12.0-1.28,j,correct_rejection,1306,audio/10.wav,,267102,,212,audio-keyboard-response,
114,English_Mandarin_some,,,,,,0.0-12.0-2.28, ,,127,,,267230,,213,html-keyboard-response,
114,English_Mandarin_some,,,,,,0.0-12.0-0.29,,,,audio/kaching.wav,,267920,,214,audio-keyboard-response,
114,English_Mandarin_some,,f,,,,0.0-12.0-1.29,f,hit,1016,audio/meiyou.wav,,268942,,215,audio-keyboard-response,
114,English_Mandarin_some,,,,,,0.0-12.0-2.29, ,,143,,,269085,,216,html-keyboard-response,
114,English_Mandarin_some,,,,,,0.0-12.0-0.30,,,,audio/kaching.wav,,269772,,217,audio-keyboard-response,
114,English_Mandarin_some,,j,,,,0.0-12.0-1.30,f,miss,993,audio/yixie-critical.wav,,270765,,218,audio-keyboard-response,
114,English_Mandarin_some,,,,,,0.0-12.0-2.30, ,,88,,,270854,,219,html-keyboard-response,
114,English_Mandarin_some,,,,,,0.0-12.0-0.31,,,,audio/kaching.wav,,271543,,220,audio-keyboard-response,
114,English_Mandarin_some,,j,,,,0.0-12.0-1.31,j,correct_rejection,1347,audio/10.wav,,272894,,221,audio-keyboard-response,
114,English_Mandarin_some,,,,,,0.0-12.0-2.31, ,,96,,,272990,,222,html-keyboard-response,
114,English_Mandarin_some,[],,,,,0.0-13.0,"{'age': '19', 'P0_Q0': None, 'gender': 'Female', 'education': ' College (B.A., B.S.)', 'disability': [], 'place of residence': 'the Netherlands', 'disability explanation': ''}",,30244,,,303295,,223,survey,
114,English_Mandarin_some,[],,,,,0.0-14.0,"{'P0_Q0': None, 'eng ok age': 15, 'eng edu year': 5, 'eng start age': 3, 'Mandarin ok age': 'As early as I can remember', 'eng country year': 2, 'English work year': 0, 'Mandarin edu year': 14, 'Mandarin start age': 'since birth', 'Mandarin work year': 0, 'English family year': 0, 'Mandarin family year': 19, 'Mandarin country year': 17}",,64578,,,367902,,224,survey,
114,English_Mandarin_some,[],,,,,0.0-15.0,"{'P0_Q0': None, 'eng count time': '0%', 'eng family time': '0%', 'eng friend time': '40%', 'Eng self talk time': '10%', 'English school time': '100%', 'Mandarin count time': '100%', 'Mandarin family time': '100%', 'Mandarin friend time': '60%', 'Mandarin school time': '0%', 'Mandarin self talk time': '90%', 'other language count time': '0%', 'other langauge family time': '0%', 'other language friend time': '0%', 'other languages school time': '0%', 'other language self talk time': '0%'}",,65814,,,433746,,225,survey,
114,English_Mandarin_some,[],,,,,0.0-16.0,"{'P0_Q0': None, 'eng prof read': 5, 'eng prof speak': 5, 'eng prof write': 5, 'Mandarin prof read': 6, 'Mandarin prof speak': 6, 'Mandarin prof write': 6, 'eng prof understand': 5, 'Mandarin prof understand': 6}",,18956,,,452723,,226,survey,
114,English_Mandarin_some,[],,,,,0.0-17.0,"{'P0_Q0': None, 'eng native': 6, 'Eng other eval': 6, 'Mandarin native': 6, 'eng cultural id': 3, 'eng attitude speak': 5, 'Mandarin other eval': 6, 'Mandarin cultural id': 5, 'Mandarin attitude speak': 6}",,25007,,,477746,,227,survey,
114,English_Mandarin_some,[],,,,,0.0-18.0,"{'P0_Q1': None, 'comments': ''}",,1616,,,479377,,228,survey,
105,English_Mandarin_some,,,[],[],[],0.0-0.0,,,,,True,1405,False,0,preload,
105,English_Mandarin_some,,,,,,0.0-1.0,0,,7130,"
    <p style=""width: 1000px; margin-bottom: 250px"">
    斯坦福大学语言学系邀请您参加一项研究。
    <BR><BR>您会完成一项跟语言有关的任务，例如读或听一些字、描述图片或场景、造句、或完成简单的语言游戏。
    <BR>本研究中没有已知的风险、成本或不适。
    <BR><BR>
    如果您同意参与这项研究，请继续。
    </p>
    <p style=""width: 1000px; font-size: 9pt; position: relative; text-align: justify"">
    如果您已读完此表格并决定参与此项目，请明白您的参与是自愿的，您有权随时撤回您的同意或停止参与，而不会受到惩罚或失去您原本可以享有的利益有权。 您有权拒绝回答任何问题。 您的个人隐私将在研究产生的所有已发布和书面数据中得到保护。
    <BR><BR>联系信息：问题、疑虑或投诉：如果您对本研究、其程序、风险和益处有任何问题、疑虑或投诉，请致电 (650) 723-4284 联系 Meghan Sumner 教授。如果您对这项研究的进行方式不满意，或者如果您对研究或您作为参与者的权利有任何疑虑、投诉或一般问题，请联系斯坦福机构审查委员会 (IRB) 发言与独立于研究团队的人联系 (650)-723-2480 或拨打免费电话 1-866-680-2906。 您也可以致函 Stanford IRB, Stanford University, Stanford, CA 94305-5401 或发送电子邮件至 irbnonmed@stanford.edu。
    </p>",,8538,,1,html-button-response,
105,English_Mandarin_some,,,,,,0.0-2.0, ,,3082,<p>这个实验将会播放音频。<BR><BR><strong><p2>您必须年满十八周岁才能参与此项实验，并且您需要会说中文、英文两种语言。</p2></strong> <br><br>请您在安静的地方用电脑完成这个实验，并确保您把<strong><p2>电脑音量调整至合适的程度</p2></strong>。 <br><br>请按空格键继续。</p>,,11622,,2,html-keyboard-response,
105,English_Mandarin_some,,,,,,0.0-3.0, ,,7107,在接下来的实验中，你将听到一些句子。你的任务是根据你是否同意这些句子来回答“是”或“否”。这个实验大约需要20分钟。<br><br>当你准备好开始时，请按下空格键。,,18730,,3,html-keyboard-response,
105,English_Mandarin_some,,,,,,0.0-4.0, ,,72501,"<h3><strong><big><p2>Context</p2></big></strong></h3> <br> <img src='image/0.jpg'; alt='gumball_machine'; align='right'; style='height:200px'> <p2 align='left'><big> You are at a candy store and are testing a row of gumball machines. These are special gumball machines that say how many gumballs you got. However, this report is sometimes faulty. </big></p2> <br><br> <img src='image/store_worker_1.jpg' alt='store_worker_sitting' align='left' style='height:200px'> <br><br> <p2 align='right'> <big> The store worker tells you that his boss has threatened to fire him if the gumball machines are left empty, and he really needs this job. He cannot see the machines from the register, but he can normally tell how full they are by the machines' statements.</big> </p2> <br><br><br> <img src='image/store_worker_2.jpg' alt='store_worker_standing' align='center' style='height:200px'> <p2 align='left'> <big> He asks you to tell him if the statement is right or wrong, so that he will know if a machine is empty and needs to be refilled. </big> </p2> <br><br>",,91230,,4,html-keyboard-response,
105,English_Mandarin_some,,,,,,0.0-5.0, ,,26384,"<p><font size=""5""> Place your right index finger on the <strong>J</strong> key and left index finger on the <strong>F</strong> key. <br><br><img src=""image/keypress.jpg""alt=""keyboard"" align=""center"" style=""height:400px""> <br><br> If you agree with the statement, press <strong>F</strong>; if you disagree with the statement, press <strong>J</strong>. <br>Use your thumb to press <strong>SPACE</strong> and do not move your index fingers. <br> <strong><p2>Please remember, you have four seconds to inform the worker after you hear the statement. </p2></strong> <br><br></p></font> ",,117617,,5,html-keyboard-response,
105,English_Mandarin_some,,,,,,0.0-6.0-0.0,,,,audio/kaching.wav,,118978,,6,audio-keyboard-response,
105,English_Mandarin_some,,,,,,0.0-6.0-1.0,,,,audio/all.wav,,120730,,7,audio-keyboard-response,
105,English_Mandarin_some,,,,,,0.0-6.0-2.0,f,,4405,<img src='image/13.jpg'; style='height:400px'>,,125136,,8,html-keyboard-response,
105,English_Mandarin_some,,,,,,0.0-6.0-3.0, ,,12867,<h3><big><p2> You let the store worker know that you agree with the statement. He therefore knows that the machine is empty and that he needs to refill the machine. </p2></big></h3><img src='image/store_worker_gumball.jpg'; style='height:400px'>,,138005,,9,html-keyboard-response,
105,English_Mandarin_some,,,,,,0.0-7.0-0.0,,,,audio/kaching.wav,,138690,,10,audio-keyboard-response,
105,English_Mandarin_some,,,,,,0.0-7.0-1.0,,,,audio/none.wav,,140510,,11,audio-keyboard-response,
105,English_Mandarin_some,,,,,,0.0-7.0-2.0,j,,4093,<img src='image/10.jpg'; style='height:400px'>,,144604,,12,html-keyboard-response,
105,English_Mandarin_some,,,,,,0.0-7.0-3.0, ,,3512,<h3><big><p2> You let the store worker know that you disagreed with the statement. He therefore knows that the machine is not empty and that he does not need to refill the machine. </p2></big></h3><img src='image/store_worker_gumball.jpg'; style='height:400px'>,,148118,,13,html-keyboard-response,
105,English_Mandarin_some,,,,,,0.0-8.0-0.0, ,,28353,"<h3><big><p2>Be Careful!</h3></big> <img src='image/13.jpg'; align='left'; style='height:200px'><h3><p2>One time, someone got this many gumballs and was told ""You got all of the gumballs."" <br>They pressed ""NO"" (J) telling the store worker that they disagreed with the statement. He thought the machine was not empty and that he did not need to refill it. He was fired.</br></p2></h3> <img src='image/store_worker_fired.jpg'; align='right'; style='height:200px'><br><br><br><br><br><br><br>",,176473,,14,html-keyboard-response,
105,English_Mandarin_some,,True,,,,0.0-8.0-1.0,a,,21735,"<h3><big>Quiz</big></h3><br>When will the store worker be fired? <br> Please press the corresponding button on the keyboard.（For instance, if you choose a, then press ""a"" on your keyboard）<br><br>a. When the machines are empty.<br> b. When the machines jam.<br> c. When the machines explode.<br> d. When the machines don't make a sound.",,199217,,15,categorize-html,
105,English_Mandarin_some,,,,,,0.0-9.0-0.0, ,,11653,"<h3>Let's start with four practice trials.</h3> Please make sure that your index fingers are on the J and F keys. <br><p2>Please remember, you have four seconds to inform the worker after you hear the statement.</p2></br></h3> <br><br><br><br><br><br>",,210871,,16,html-keyboard-response,
105,English_Mandarin_some,,,,,,0.0-9.0-1.0,,,,audio/kaching.wav,,212137,,17,audio-keyboard-response,
105,English_Mandarin_some,,,,,,0.0-9.0-2.0,f,false_alarm,2931,audio/all.wav,,215071,,18,audio-keyboard-response,
105,English_Mandarin_some,,,,,,0.0-9.0-3.0, ,,1232,,,216305,,19,html-keyboard-response,
105,English_Mandarin_some,,,,,,0.0-9.0-4.0,,,,audio/kaching.wav,,216986,,20,audio-keyboard-response,
105,English_Mandarin_some,,,,,,0.0-9.0-5.0,,false_alarm,,audio/none.wav,,221000,,21,audio-keyboard-response,
105,English_Mandarin_some,,,,,,0.0-9.0-6.0, ,,1266,,,222267,,22,html-keyboard-response,
105,English_Mandarin_some,,,,,,0.0-9.0-7.0,,,,audio/kaching.wav,,222957,,23,audio-keyboard-response,
105,English_Mandarin_some,,,,,,0.0-9.0-8.0,j,false_alarm,2112,audio/all.wav,,225076,,24,audio-keyboard-response,
105,English_Mandarin_some,,,,,,0.0-9.0-9.0, ,,2847,,,227924,,25,html-keyboard-response,
105,English_Mandarin_some,,,,,,0.0-9.0-10.0,,,,audio/kaching.wav,,228607,,26,audio-keyboard-response,
105,English_Mandarin_some,,,,,,0.0-9.0-11.0,f,false_alarm,2160,audio/none.wav,,230774,,27,audio-keyboard-response,
105,English_Mandarin_some,,,,,,0.0-9.0-12.0, ,,2434,,,233210,,28,html-keyboard-response,
105,English_Mandarin_some,,,,,,0.0-9.0-13.0, ,,17696,"<h3>Great! Now we can start the real experiment.</h3> Please make sure that your index fingers are on the J and F keys. <br><p2>Remember: J means ""agree"" and F means ""disagree""!</p2></br></h3> <br><br><br><br><br><br>",,250907,,29,html-keyboard-response,
105,English_Mandarin_some,,,,,,0.0-10.0-0.0,,,,audio/kaching.wav,,251596,,30,audio-keyboard-response,
105,English_Mandarin_some,,j,,,,0.0-10.0-1.0,f,miss,2960,audio/some.wav,,254900,,31,audio-keyboard-response,
105,English_Mandarin_some,,,,,,0.0-10.0-2.0, ,,1943,,,256845,,32,html-keyboard-response,
105,English_Mandarin_some,,,,,,0.0-10.0-0.1,,,,audio/kaching.wav,,257536,,33,audio-keyboard-response,
105,English_Mandarin_some,,f,,,,0.0-10.0-1.1,j,false_alarm,1760,audio/all.wav,,259300,,34,audio-keyboard-response,
105,English_Mandarin_some,,,,,,0.0-10.0-2.1, ,,2167,,,261468,,35,html-keyboard-response,
105,English_Mandarin_some,,,,,,0.0-10.0-0.2,,,,audio/kaching.wav,,262156,,36,audio-keyboard-response,
105,English_Mandarin_some,,j,,,,0.0-10.0-1.2,f,miss,2771,audio/some-critical.wav,,265247,,37,audio-keyboard-response,
105,English_Mandarin_some,,,,,,0.0-10.0-2.2, ,,2212,,,267461,,38,html-keyboard-response,
105,English_Mandarin_some,,,,,,0.0-10.0-0.3,,,,audio/kaching.wav,,268146,,39,audio-keyboard-response,
105,English_Mandarin_some,,j,,,,0.0-10.0-1.3,f,miss,2789,audio/some-critical.wav,,270940,,40,audio-keyboard-response,
105,English_Mandarin_some,,,,,,0.0-10.0-2.3, ,,2523,,,273464,,41,html-keyboard-response,
105,English_Mandarin_some,,,,,,0.0-10.0-0.4,,,,audio/kaching.wav,,274146,,42,audio-keyboard-response,
105,English_Mandarin_some,,j,,,,0.0-10.0-1.4,f,miss,3469,audio/none.wav,,277619,,43,audio-keyboard-response,
105,English_Mandarin_some,,,,,,0.0-10.0-2.4, ,,2535,,,280156,,44,html-keyboard-response,
105,English_Mandarin_some,,,,,,0.0-10.0-0.5,,,,audio/kaching.wav,,280846,,45,audio-keyboard-response,
105,English_Mandarin_some,,j,,,,0.0-10.0-1.5,f,miss,3229,audio/some-critical.wav,,284082,,46,audio-keyboard-response,
105,English_Mandarin_some,,,,,,0.0-10.0-2.5, ,,682,,,284764,,47,html-keyboard-response,
105,English_Mandarin_some,,,,,,0.0-10.0-0.6,,,,audio/kaching.wav,,285446,,48,audio-keyboard-response,
105,English_Mandarin_some,,j,,,,0.0-10.0-1.6,f,miss,1701,audio/all.wav,,287150,,49,audio-keyboard-response,
105,English_Mandarin_some,,,,,,0.0-10.0-2.6, ,,1122,,,288272,,50,html-keyboard-response,
105,English_Mandarin_some,,,,,,0.0-10.0-0.7,,,,audio/kaching.wav,,288956,,51,audio-keyboard-response,
105,English_Mandarin_some,,f,,,,0.0-10.0-1.7,j,false_alarm,3360,audio/six.wav,,292684,,52,audio-keyboard-response,
105,English_Mandarin_some,,,,,,0.0-10.0-2.7, ,,1804,,,294489,,53,html-keyboard-response,
105,English_Mandarin_some,,,,,,0.0-10.0-0.8,,,,audio/kaching.wav,,295176,,54,audio-keyboard-response,
105,English_Mandarin_some,,f,,,,0.0-10.0-1.8,j,false_alarm,1920,audio/some.wav,,297097,,55,audio-keyboard-response,
105,English_Mandarin_some,,,,,,0.0-10.0-2.8, ,,2809,,,299908,,56,html-keyboard-response,
105,English_Mandarin_some,,,,,,0.0-10.0-0.9,,,,audio/kaching.wav,,300597,,57,audio-keyboard-response,
105,English_Mandarin_some,,j,,,,0.0-10.0-1.9,f,miss,2251,audio/six.wav,,302849,,58,audio-keyboard-response,
105,English_Mandarin_some,,,,,,0.0-10.0-2.9, ,,1281,,,304131,,59,html-keyboard-response,
105,English_Mandarin_some,,,,,,0.0-10.0-0.10,,,,audio/kaching.wav,,304817,,60,audio-keyboard-response,
105,English_Mandarin_some,,f,,,,0.0-10.0-1.10,j,false_alarm,2680,audio/none.wav,,307501,,61,audio-keyboard-response,
105,English_Mandarin_some,,,,,,0.0-10.0-2.10, ,,1164,,,308666,,62,html-keyboard-response,
105,English_Mandarin_some,,,,,,0.0-10.0-0.11,,,,audio/kaching.wav,,309347,,63,audio-keyboard-response,
105,English_Mandarin_some,,j,,,,0.0-10.0-1.11,,false_alarm,,audio/some-critical.wav,,313352,,64,audio-keyboard-response,
105,English_Mandarin_some,,,,,,0.0-10.0-2.11, ,,899,,,314252,,65,html-keyboard-response,
105,English_Mandarin_some,,,,,,0.0-10.0-0.12,,,,audio/kaching.wav,,314937,,66,audio-keyboard-response,
105,English_Mandarin_some,,f,,,,0.0-10.0-1.12,j,false_alarm,1400,audio/some.wav,,316344,,67,audio-keyboard-response,
105,English_Mandarin_some,,,,,,0.0-10.0-2.12, ,,1956,,,318300,,68,html-keyboard-response,
